Counter,Time,Latitude,Longitude,Speed(km/h),Ax,Ay,Az,Gx,Gy,Gz,Yaw
158823,195134,21.78721,39.067482,0,-0.043,-0.196,0.978,0.061,-0.427,-0.129,357.85
158899,195134,21.78721,39.067482,0,-0.032,-0.213,0.984,-0.122,-0.061,-0.007,357.856
159005,195134,21.78721,39.067482,0,-0.031,-0.212,0.964,-0.61,0,-0.007,357.853
159111,195134,21.78721,39.067482,0,-0.032,-0.208,0.982,-0.732,-0.305,-0.007,357.851
159217,195134,21.78721,39.067482,0,-0.042,-0.2,0.984,-0.244,-0.488,-0.007,357.852
159324,195135,21.78721,39.067482,0,-0.038,-0.203,0.98,-0.061,-0.244,-0.068,357.849
159430,195135,21.78721,39.067482,0,-0.029,-0.217,0.976,-0.366,0.061,-0.007,357.847
159536,195135,21.78721,39.067482,0,-0.031,-0.207,0.976,-0.793,0,-0.068,357.846
159642,195135,21.78721,39.067482,0,-0.041,-0.203,0.98,-0.488,-0.488,0.115,357.845
159748,195135,21.78721,39.067482,0,-0.042,-0.198,0.974,0.122,-0.549,-0.068,357.844
159854,195135,21.78721,39.067482,0,-0.031,-0.21,0.979,-0.244,-0.122,-0.007,357.841
159960,195135,21.78721,39.067482,0,-0.023,-0.217,0.979,-0.854,0.305,-0.007,357.83
160066,195135,21.78721,39.067482,0,-0.029,-0.214,0.975,-0.916,-0.061,0.054,357.828
160172,195135,21.78721,39.067482,0,-0.041,-0.21,0.986,-0.427,-0.244,-0.068,357.826
160278,195136,21.78721,39.067482,0,-0.045,-0.197,0.979,-0.061,-0.488,-0.068,357.823
160384,195136,21.78721,39.067482,0,-0.041,-0.199,0.975,-0.061,-0.305,-0.068,357.821
160490,195136,21.78721,39.067482,0,-0.027,-0.219,0.985,-0.427,0.061,0.115,357.824
160596,195136,21.78721,39.067482,0,-0.027,-0.21,0.97,-0.793,0.183,-0.007,357.82
160703,195136,21.78721,39.067482,0,-0.032,-0.209,0.987,-0.793,0.122,-0.007,357.82
160810,195136,21.78721,39.067482,0,-0.037,-0.208,0.992,-0.366,-0.366,-0.007,357.82
160916,195136,21.78721,39.067482,0,-0.027,-0.199,0.998,-0.244,-0.305,-0.129,357.819
161022,195136,21.78721,39.067482,0,-0.031,-0.207,0.999,-0.977,0.122,-0.068,357.815
161128,195136,21.78721,39.067482,0,-0.034,-0.207,0.999,-0.732,-0.122,-0.068,357.812
161234,195136,21.78721,39.067482,0,-0.026,-0.206,0.99,-0.549,-0.122,-0.129,357.81
161335,195137,21.787209,39.067482,0,-0.041,-0.208,0.98,-0.427,0.122,-0.129,357.813
161441,195137,21.787209,39.067482,0,-0.042,-0.197,0.968,-0.305,-0.732,-0.007,357.815
161547,195137,21.787209,39.067482,0,-0.032,-0.216,0.981,-0.366,-0.061,-0.129,357.813
161653,195137,21.787209,39.067482,0,-0.031,-0.209,0.985,-0.549,0,0.054,357.81
161759,195137,21.787209,39.067482,0,-0.03,-0.207,0.979,-0.549,-0.061,0.054,357.807
161865,195137,21.787209,39.067482,0,-0.043,-0.207,0.973,-0.244,-0.427,-0.068,357.804
161972,195137,21.787209,39.067482,0,-0.028,-0.194,0.989,-0.549,-0.061,-0.068,357.801
162075,195137,21.787209,39.067482,0,-0.034,-0.19,0.977,0,-0.732,0.054,357.79
162182,195137,21.787209,39.067482,0,-0.03,-0.188,0.963,0.061,-0.427,-0.007,357.788
162288,195138,21.787209,39.067482,0,-0.025,-0.217,0.968,-0.366,-0.122,-0.007,357.784
162394,195138,21.787209,39.067482,0,-0.027,-0.202,1.025,-0.244,0,-0.068,357.78
162500,195138,21.787209,39.067482,0,-0.039,-0.216,0.951,-0.549,0.183,-0.007,357.78
162606,195138,21.787209,39.067482,0,-0.039,-0.203,1.046,-0.183,-0.122,-0.068,357.777
162713,195138,21.787209,39.067482,0,-0.042,-0.213,0.938,-0.732,-0.122,-0.068,357.776
162820,195138,21.787209,39.067482,0,-0.039,-0.202,0.975,0.061,-0.488,0.054,357.771
162926,195138,21.787209,39.067482,0,-0.031,-0.224,0.985,-0.61,-0.183,-0.007,357.769
163032,195138,21.787209,39.067482,0,-0.039,-0.183,0.986,0.183,-0.244,-0.129,357.766
163139,195138,21.787209,39.067482,0,-0.02,-0.203,1.006,-0.549,-0.183,-0.068,357.765
163245,195138,21.787209,39.067482,0,-0.015,-0.224,0.996,-1.526,0.183,-0.068,357.761
163350,195139,21.787209,39.067482,0,-0.024,-0.229,0.977,-1.282,-0.061,0.054,357.756
163456,195139,21.787209,39.067482,0,-0.05,-0.216,0.948,-0.488,-0.305,0.054,357.75
163562,195139,21.787209,39.067482,0,-0.038,-0.199,0.954,0.427,-0.549,-0.068,357.749
163668,195139,21.787209,39.067482,0,0.007,-0.189,0.989,0.366,-0.61,-0.007,357.74
163774,195139,21.787209,39.067482,0,0.012,-0.192,1.017,-0.61,-0.183,0.054,357.743
163880,195139,21.787209,39.067482,0,0.014,-0.217,1.007,-2.014,0,-0.007,357.75
163987,195139,21.787209,39.067482,0,-0.015,-0.211,0.94,-1.038,-0.488,0.115,357.749
164091,195139,21.787209,39.067482,0,-0.035,-0.196,0.953,0.305,-0.671,0.115,357.759
164197,195139,21.787209,39.067482,0,-0.025,-0.189,0.992,0.122,-0.549,0.115,357.768
164304,195140,21.787209,39.067482,0,-0.022,-0.2,1.02,-0.854,0,0.115,357.775
164410,195140,21.787209,39.067482,0,-0.02,-0.236,1.01,-2.014,0.122,0.237,357.793
164516,195140,21.787209,39.067482,0,-0.047,-0.217,0.945,-1.038,-0.427,0.237,357.811
164622,195140,21.787209,39.067482,0,-0.05,-0.194,0.958,0.732,-0.854,0.359,357.832
164723,195140,21.787209,39.067482,0,-0.021,-0.227,1.014,-1.16,0,0.298,357.862
164830,195140,21.787209,39.067482,0,-0.012,-0.225,0.968,-1.343,-0.427,0.42,357.897
164936,195140,21.787209,39.067482,0,0.007,-0.203,0.986,-0.793,-0.366,0.543,357.943
165042,195140,21.787209,39.067482,0,0.023,-0.203,0.97,-0.854,-0.977,0.909,358.011
165148,195140,21.787209,39.067482,0,0.068,-0.188,0.983,-1.404,-1.16,1.275,358.125
165254,195140,21.787209,39.067482,0,0.06,-0.168,1.003,-0.61,-1.099,1.519,358.277
165358,195141,21.787209,39.067482,0,0.063,-0.193,0.983,-1.526,-1.404,2.252,358.494
165465,195141,21.787209,39.067482,0,0.066,-0.16,0.996,-1.099,-0.916,3.472,358.806
165571,195141,21.787209,39.067482,0,0.083,-0.185,0.958,-1.587,-1.099,4.632,359.251
165677,195141,21.787209,39.067482,0,0.051,-0.159,1.001,-1.404,-1.099,5.303,359.777
165784,195141,21.787209,39.067482,0,0.056,-0.191,0.967,-1.465,-1.282,6.158,0.386
165890,195141,21.787209,39.067482,0,0.126,-0.214,0.912,1.465,-0.061,8.477,1.168
165997,195141,21.787209,39.067482,0,0.072,-0.205,1.075,-0.854,1.404,8.172,2.105
166103,195141,21.787209,39.067482,0,0.02,-0.117,1.03,0.061,-0.244,7.012,2.855
166209,195141,21.787209,39.067482,0,0.058,-0.146,0.965,-1.953,-0.427,9.332,3.725
166316,195142,21.787203,39.067478,3.01,0.112,-0.206,0.952,-0.305,0.122,10.919,4.854
166422,195142,21.787203,39.067478,3.01,0.095,-0.233,0.954,2.808,1.953,9.759,5.951
166528,195142,21.787203,39.067478,3.01,0.064,-0.192,1.007,4.456,3.601,9.576,6.987
166634,195142,21.787203,39.067478,3.01,0.033,-0.138,0.93,4.333,3.723,9.698,7.975
166747,195142,21.787203,39.067478,3.01,-0.004,-0.065,1.081,2.136,2.319,10.125,9.059
166845,195142,21.787203,39.067478,3.01,0.01,-0.158,0.933,-2.808,0.305,8.416,10.01
166951,195142,21.787203,39.067478,3.01,-0.009,-0.114,1.005,-0.793,-0.122,7.806,10.852
167057,195142,21.787203,39.067478,3.01,0.002,-0.255,0.962,0.244,1.038,7.501,11.677
167163,195142,21.787203,39.067478,3.01,-0.043,-0.183,1.035,1.099,1.282,6.28,12.416
167270,195142,21.787203,39.067478,3.01,0.041,-0.151,0.934,3.906,1.648,5.669,13.043
167377,195143,21.787189,39.067471,9.59,0.012,-0.144,0.961,1.709,2.869,4.815,13.568
167483,195143,21.787189,39.067471,9.59,-0.053,-0.157,1.023,1.282,-0.366,4.449,14.009
167590,195143,21.787189,39.067471,9.59,-0.026,-0.165,1.042,4.089,-2.991,6.463,14.62
167696,195143,21.787189,39.067471,9.59,0.018,-0.121,1.042,2.93,-1.526,6.097,15.303
167802,195143,21.787189,39.067471,9.59,-0.056,-0.124,1.055,3.54,-1.221,6.097,15.956
167909,195143,21.787189,39.067471,9.59,-0.039,-0.077,1.023,4.7,-1.526,6.402,16.641
168015,195143,21.787189,39.067471,9.59,-0.064,-0.137,0.928,6.226,-2.014,6.829,17.361
168122,195143,21.787189,39.067471,9.59,-0.038,-0.045,0.987,3.418,-3.113,6.036,18.05
168228,195143,21.787189,39.067471,9.59,-0.016,-0.029,1.011,1.038,-2.075,6.768,18.701
168334,195144,21.787169,39.067455,12.5,-0.014,-0.027,1.01,0.854,-2.625,6.951,19.466
168441,195144,21.787169,39.067455,12.5,-0.033,-0.125,0.926,2.197,-3.052,5.669,20.124
168547,195144,21.787169,39.067455,12.5,-0.043,-0.141,0.974,2.136,-2.319,5.486,20.712
168653,195144,21.787169,39.067455,12.5,-0.039,0.03,1.013,2.014,-1.526,5.303,21.273
168760,195144,21.787169,39.067455,12.5,-0.062,-0.037,1.045,2.808,1.404,5.669,21.876
168866,195144,21.787169,39.067455,12.5,-0.078,-0.041,0.967,1.831,-0.061,5.669,22.489
168972,195144,21.787169,39.067455,12.5,-0.065,-0.002,0.929,-0.244,-0.305,4.754,23.062
169078,195144,21.787169,39.067455,12.5,-0.069,0.008,0.961,-2.808,-0.549,4.266,23.538
169184,195144,21.787169,39.067455,12.5,-0.094,-0.076,0.993,-4.395,-2.563,4.449,23.979
169290,195144,21.787169,39.067455,12.5,-0.02,-0.178,0.916,0.183,-1.831,5.12,24.515
169397,195145,21.78714,39.067436,13,0.012,-0.021,0.997,2.441,0.061,4.144,24.977
169503,195145,21.78714,39.067436,13,-0.112,-0.009,0.912,2.502,-0.916,3.594,25.384
169610,195145,21.78714,39.067436,13,-0.04,0.037,0.97,-0.061,0.732,4.205,25.827
169716,195145,21.78714,39.067436,13,-0.048,-0.01,0.984,-3.601,0.793,4.937,26.32
169822,195145,21.78714,39.067436,13,-0.06,-0.055,1.028,-3.601,0.61,4.998,26.832
169929,195145,21.78714,39.067436,13,-0.057,-0.092,0.967,-2.441,-0.793,5.669,27.389
170035,195145,21.78714,39.067436,13,-0.003,-0.097,1.081,-4.761,0.671,6.768,28.096
170141,195145,21.78714,39.067436,13,-0.061,-0.033,0.907,0.183,-0.061,6.89,28.829
170248,195145,21.78714,39.067436,13,-0.083,-0.095,0.904,-1.648,-1.343,7.928,29.617
170354,195146,21.787109,39.067425,13.17,-0.042,-0.008,0.974,-0.122,1.282,9.087,30.536
170460,195146,21.787109,39.067425,13.17,-0.062,-0.022,1.033,-2.869,0.916,9.637,31.532
170567,195146,21.787109,39.067425,13.17,-0.055,-0.039,0.906,-0.854,-0.122,10.064,32.594
170671,195146,21.787109,39.067425,13.17,-0.034,0.015,1.06,0.244,-0.671,10.491,33.701
170777,195146,21.787109,39.067425,13.17,-0.004,0.024,1.041,0,0.244,11.102,34.848
170884,195146,21.787109,39.067425,13.17,-0.006,0.011,0.966,-2.319,0.61,11.468,36.058
170990,195146,21.787109,39.067425,13.17,-0.005,-0.035,1.085,-1.953,0.977,12.139,37.304
171097,195146,21.787109,39.067425,13.17,0.004,0.031,0.986,-0.671,-1.16,12.75,38.643
171203,195146,21.787109,39.067425,13.17,0.022,0.052,0.945,-2.136,0.549,12.628,39.987
171309,195147,21.787077,39.067413,13.49,-0.031,-0.034,0.968,-3.296,-0.671,13.482,41.365
171416,195147,21.787077,39.067413,13.49,0.098,-0.048,1.161,-2.747,-0.061,13.421,42.772
171522,195147,21.787077,39.067413,13.49,-0.036,-0.002,1.011,0.61,-0.122,13.482,44.183
171628,195147,21.787077,39.067413,13.49,-0.028,0.044,0.954,-2.808,-0.671,13.36,45.588
171735,195147,21.787077,39.067413,13.49,-0.027,-0.04,1.071,-2.075,0.793,14.825,47.101
171841,195147,21.787077,39.067413,13.49,-0.056,0.092,1.011,0.732,-1.709,15.496,48.727
171947,195147,21.787077,39.067413,13.49,0.008,-0.031,1.017,-4.639,-0.183,15.435,50.331
172055,195147,21.787077,39.067413,13.49,0.008,0.039,0.957,-2.686,0.854,16.778,52.119
172161,195147,21.787077,39.067413,13.49,-0.131,-0.043,0.937,5.127,-1.465,16.168,53.873
172268,195147,21.787077,39.067413,13.49,0.024,0.118,1.06,2.319,-1.526,14.825,55.518
172374,195148,21.787041,39.067413,15.5,0.064,0.094,1.034,-5.31,1.892,15.252,57.121
172480,195148,21.787041,39.067413,15.5,-0.23,0.041,0.749,-14.343,1.526,13.421,58.622
172587,195148,21.787041,39.067413,15.5,0.021,-0.088,0.937,-8.362,-0.793,14.459,60.052
172695,195148,21.787041,39.067413,15.5,-0.149,-0.23,0.847,4.028,-1.831,15.13,61.736
172801,195148,21.787041,39.067413,15.5,0.055,-0.01,1.031,10.376,3.113,15.679,63.415
172908,195148,21.787041,39.067413,15.5,-0.077,0.17,0.976,4.883,1.038,13.787,64.995
173014,195148,21.787041,39.067413,15.5,-0.134,0.15,0.95,-7.385,0.122,11.651,66.332
173120,195148,21.787041,39.067413,15.5,-0.046,0.036,0.915,-7.812,-2.869,13.665,67.669
173227,195148,21.787041,39.067413,15.5,-0.038,-0.163,1.006,-3.479,-4.028,15.557,69.284
173333,195149,21.787001,39.067425,17.15,0.164,-0.111,1.035,1.404,-2.625,14.581,70.865
173439,195149,21.787001,39.067425,17.15,-0.138,0.092,0.971,4.822,1.038,12.811,72.262
173546,195149,21.787001,39.067425,17.15,-0.146,0.075,0.982,1.404,0.732,13.238,73.672
173652,195149,21.787001,39.067425,17.15,0.025,0.02,1.089,-2.991,0.793,12.811,75.062
173759,195149,21.787001,39.067425,17.15,-0.049,-0.036,0.943,-2.93,0.061,12.078,76.392
173865,195149,21.787001,39.067425,17.15,-0.095,-0.04,1.154,-3.723,1.221,11.468,77.636
173971,195149,21.787001,39.067425,17.15,0.025,-0.036,1.038,0.793,-1.465,11.651,78.868
174075,195149,21.787001,39.067425,17.15,0.053,-0.04,1.229,-1.404,2.38,11.163,80.027
174181,195149,21.787001,39.067425,17.15,-0.082,-0.01,1.006,-0.793,0.61,9.82,81.112
174287,195149,21.787001,39.067425,17.15,-0.019,-0.009,0.989,-1.465,1.099,9.82,82.138
174394,195150,21.786961,39.067444,18.29,-0.055,-0.017,0.925,0.122,-0.793,8.477,83.137
174500,195150,21.786961,39.067444,18.29,-0.007,-0.043,0.983,-1.404,-1.892,7.867,84.021
174606,195150,21.786961,39.067444,18.29,0.185,-0.016,1.15,-0.671,0.305,7.317,84.806
174713,195150,21.786961,39.067444,18.29,-0.006,-0.113,1.047,-3.601,0.732,6.463,85.534
174817,195150,21.786961,39.067444,18.29,-0.157,-0.091,0.947,0.671,-1.709,5.181,86.112
174923,195150,21.786961,39.067444,18.29,-0.135,-0.144,0.895,2.869,-1.953,4.205,86.577
175030,195150,21.786961,39.067444,18.29,-0.032,-0.042,1.065,0.671,-1.587,3.716,86.996
175136,195150,21.786961,39.067444,18.29,0.073,-0.067,0.95,0.122,2.747,3.472,87.358
175243,195150,21.786961,39.067444,18.29,-0.208,-0.042,0.968,-0.305,-0.427,3.228,87.721
175349,195151,21.786922,39.067474,18.97,-0.248,-0.119,0.815,2.075,-3.052,3.35,88.064
175452,195151,21.786922,39.067474,18.97,-0.062,-0.136,1.209,-1.465,-1.343,3.472,88.439
175561,195151,21.786922,39.067474,18.97,0.25,-0.157,1.129,-1.404,-0.793,2.679,88.744
175667,195151,21.786922,39.067474,18.97,0.026,-0.033,1.083,-1.221,0.732,2.19,88.967
175773,195151,21.786922,39.067474,18.97,0.054,-0.15,0.94,-2.686,1.099,2.557,89.212
175880,195151,21.786922,39.067474,18.97,0.039,-0.075,0.979,-0.305,1.709,2.923,89.507
175982,195151,21.786922,39.067474,18.97,-0.021,0.01,0.992,0.183,0.305,1.763,89.729
176088,195151,21.786922,39.067474,18.97,-0.244,-0.221,0.889,-0.854,0.488,2.129,89.929
176195,195151,21.786922,39.067474,18.97,-0.088,-0.068,0.966,0.244,-0.427,1.702,90.179
176301,195151,21.786922,39.067474,18.97,-0.037,-0.056,0.968,1.526,-0.305,2.129,90.403
176407,195152,21.786882,39.067505,20.39,-0.008,-0.036,1.021,0.793,0.916,1.702,90.586
176514,195152,21.786882,39.067505,20.39,0.053,-0.12,1.123,-2.93,0.488,1.702,90.761
176616,195152,21.786882,39.067505,20.39,-0.062,-0.055,0.909,0.671,-0.977,1.092,90.935
176723,195152,21.786882,39.067505,20.39,-0.057,-0.106,0.884,3.601,-0.122,1.763,91.106
176829,195152,21.786882,39.067505,20.39,0.131,-0.107,1.059,-0.061,0.671,1.458,91.296
176935,195152,21.786882,39.067505,20.39,-0.066,-0.04,0.802,-0.427,0.122,1.214,91.432
177042,195152,21.786882,39.067505,20.39,0.046,-0.067,1.091,-2.319,1.526,1.458,91.584
177148,195152,21.786882,39.067505,20.39,-0.124,-0.113,0.785,1.587,-0.61,0.848,91.686
177254,195152,21.786882,39.067505,20.39,0.055,-0.053,1.059,-2.991,1.038,0.359,91.728
177358,195153,21.78684,39.067543,22.09,-0.031,-0.116,0.91,0.61,0.549,0.543,91.786
177464,195153,21.78684,39.067543,22.09,-0.049,-0.123,1.075,-2.014,1.77,0.115,91.84
177570,195153,21.78684,39.067543,22.09,-0.008,-0.095,1.097,-1.953,0.732,0.604,91.864
177677,195153,21.78684,39.067543,22.09,0.043,-0.116,1.074,-2.686,-0.061,0.359,91.896
177783,195153,21.78684,39.067543,22.09,-0.07,-0.023,0.976,0.61,0.488,0.115,91.918
177889,195153,21.78684,39.067543,22.09,-0.067,-0.135,0.931,-0.671,-1.526,0.359,91.947
177997,195153,21.78684,39.067543,22.09,-0.052,-0.089,0.971,1.343,-0.916,0.054,91.969
178103,195153,21.78684,39.067543,22.09,0.067,-0.093,1.053,-1.831,0.793,-0.373,91.93
178210,195153,21.78684,39.067543,22.09,-0.022,-0.239,1,-1.953,-0.183,-0.129,91.868
178316,195154,21.786797,39.067581,23.27,0.017,-0.086,1.05,0.549,-0.122,-0.251,91.833
178422,195154,21.786797,39.067581,23.27,-0.058,-0.068,0.957,-0.183,-1.099,-0.922,91.762
178529,195154,21.786797,39.067581,23.27,-0.245,-0.075,0.886,1.404,-1.709,-0.739,91.697
178636,195154,21.786797,39.067581,23.27,-0.188,-0.01,0.809,5.493,-1.465,-0.617,91.608
178742,195154,21.786797,39.067581,23.27,-0.059,-0.134,0.896,0.671,-2.563,-0.678,91.554
178849,195154,21.786797,39.067581,23.27,0.092,-0.114,1.073,1.221,-0.61,-0.556,91.491
178955,195154,21.786797,39.067581,23.27,-0.079,-0.125,0.974,-0.977,-0.549,-0.739,91.396
179061,195154,21.786797,39.067581,23.27,-0.009,-0.141,1.026,-0.61,0.061,-0.129,91.356
179168,195154,21.786797,39.067581,23.27,-0.103,-0.113,0.965,1.221,2.014,-0.678,91.301
179274,195154,21.786797,39.067581,23.27,-0.006,-0.074,0.994,-0.183,-0.366,-0.617,91.222
179382,195155,21.786751,39.067623,24.34,0.002,-0.116,0.872,-3.174,-1.587,-1.044,91.125
179489,195155,21.786751,39.067623,24.34,-0.066,-0.1,1.006,-1.648,-2.136,-0.922,91.05
179595,195155,21.786751,39.067623,24.34,0.019,-0.207,1.12,-0.427,-1.282,-0.373,90.984
179702,195155,21.786751,39.067623,24.34,0.011,-0.114,0.944,0.671,-2.563,-0.312,90.937
179809,195155,21.786751,39.067623,24.34,-0.194,-0.03,0.983,2.136,-2.93,-0.8,90.84
179915,195155,21.786751,39.067623,24.34,-0.088,-0.069,0.8,3.54,-0.488,-0.556,90.772
180020,195155,21.786751,39.067623,24.34,-0.078,-0.013,0.986,0.854,1.953,-0.8,90.726
180127,195155,21.786751,39.067623,24.34,-0.016,-0.028,1.085,-1.099,0.549,-1.044,90.641
180233,195155,21.786751,39.067623,24.34,0.039,-0.098,0.926,2.991,-0.549,-1.166,90.537
180340,195156,21.786701,39.067665,25.51,-0.154,-0.068,1.045,-3.662,2.563,-0.678,90.47
180446,195156,21.786701,39.067665,25.51,-0.141,-0.067,0.811,4.517,-2.258,-0.861,90.404
180553,195156,21.786701,39.067665,25.51,-0.158,-0.21,0.899,-0.61,1.404,-1.166,90.321
180661,195156,21.786701,39.067665,25.51,-0.143,-0.053,0.894,-1.038,-2.197,-0.8,90.25
180767,195156,21.786701,39.067665,25.51,-0.218,-0.059,0.953,1.038,0.61,-0.373,90.176
180874,195156,21.786701,39.067665,25.51,-0.345,-0.096,0.841,0.183,-1.465,-0.8,90.109
180980,195156,21.786701,39.067665,25.51,-0.268,-0.167,0.842,2.38,-2.319,-0.8,90.043
181086,195156,21.786701,39.067665,25.51,-0.005,-0.211,0.985,2.808,-2.93,-0.495,89.969
181193,195156,21.786701,39.067665,25.51,-0.01,-0.113,1.092,0.854,-3.113,-0.434,89.902
181300,195156,21.786701,39.067665,25.51,-0.123,-0.115,0.912,1.404,-1.343,-0.983,89.815
181408,195157,21.78665,39.067707,25.77,-0.279,-0.107,0.964,0.244,-1.831,-0.8,89.762
181515,195157,21.78665,39.067707,25.77,-0.107,-0.106,0.98,2.014,0.122,-0.556,89.702
181622,195157,21.78665,39.067707,25.77,-0.085,-0.127,1.085,1.282,2.197,-0.861,89.629
181729,195157,21.78665,39.067707,25.77,0.067,-0.104,1.03,1.404,1.16,-0.8,89.554
181835,195157,21.78665,39.067707,25.77,-0.117,-0.206,0.995,-3.967,-0.854,-1.289,89.423
181941,195157,21.78665,39.067707,25.77,-0.01,-0.185,1,-1.831,-0.549,-0.251,89.346
182050,195157,21.78665,39.067707,25.77,0.121,-0.119,1.082,-2.808,0.122,0.115,89.298
182156,195157,21.78665,39.067707,25.77,-0.031,-0.104,1.033,-0.061,1.77,-0.373,89.257
182262,195157,21.78665,39.067707,25.77,-0.042,-0.1,0.931,0.061,0.305,-0.678,89.194
182369,195158,21.786598,39.067749,26.04,-0.14,-0.057,1.008,4.028,-2.075,-0.922,89.103
182476,195158,21.786598,39.067749,26.04,-0.012,-0.101,0.952,3.601,0.366,-0.312,89.045
182582,195158,21.786598,39.067749,26.04,-0.061,-0.142,0.988,-2.747,0.61,-0.739,88.979
182689,195158,21.786598,39.067749,26.04,-0.037,-0.139,1.03,-0.732,-0.793,0.298,88.945
182796,195158,21.786598,39.067749,26.04,-0.088,0.076,0.934,5.493,-1.282,0.543,89.009
182902,195158,21.786598,39.067749,26.04,-0.005,-0.006,0.925,-0.366,-0.671,0.848,89.106
183009,195158,21.786598,39.067749,26.04,-0.09,-0.032,0.915,-1.16,-0.183,0.909,89.212
183115,195158,21.786598,39.067749,26.04,-0.03,-0.084,1.061,-1.465,0.183,1.275,89.313
183222,195158,21.786598,39.067749,26.04,-0.071,-0.112,0.868,-1.282,0.488,0.97,89.433
183329,195158,21.786598,39.067749,26.04,-0.149,-0.101,0.925,1.465,0.244,0.97,89.535
183438,195159,21.786545,39.067795,26.46,-0.083,-0.094,1.064,-0.61,-0.122,0.787,89.627
183544,195159,21.786545,39.067795,26.46,-0.078,-0.039,0.944,0.305,-2.197,0.665,89.708
183650,195159,21.786545,39.067795,26.46,-0.036,-0.097,0.954,0.366,-1.099,0.726,89.787
183756,195159,21.786545,39.067795,26.46,-0.098,0.031,0.948,-1.648,-0.305,0.604,89.881
183863,195159,21.786545,39.067795,26.46,-0.069,0.003,1.085,-2.869,2.625,0.237,89.914
183970,195159,21.786545,39.067795,26.46,0.082,-0.115,1.131,1.282,1.099,0.665,89.965
184075,195159,21.786545,39.067795,26.46,0.017,-0.102,1.013,-3.662,0.793,0.359,90.04
184182,195159,21.786545,39.067795,26.46,-0.055,-0.108,1.042,0.122,-0.244,0.298,90.097
184289,195159,21.786545,39.067795,26.46,-0.1,-0.125,1.036,-2.563,0.061,0.237,90.124
184396,195200,21.786491,39.067837,26.77,-0.033,-0.121,0.92,0.671,-1.221,0.726,90.161
184503,195200,21.786491,39.067837,26.77,-0.108,-0.086,0.938,2.197,0.671,0.604,90.233
184610,195200,21.786491,39.067837,26.77,-0.052,0.026,1.022,2.38,0.916,0.176,90.278
184718,195200,21.786491,39.067837,26.77,-0.042,-0.128,1.283,-1.77,1.343,0.482,90.299
184825,195200,21.786491,39.067837,26.77,-0.186,-0.115,1.018,0.793,-0.427,0.054,90.358
184932,195200,21.786491,39.067837,26.77,-0.038,-0.073,1.007,-0.183,-1.587,0.298,90.405
185039,195200,21.786491,39.067837,26.77,-0.101,-0.059,0.867,-0.916,-1.221,0.176,90.453
185145,195200,21.786491,39.067837,26.77,-0.159,-0.055,0.808,-0.488,-0.854,0.482,90.504
185251,195200,21.786491,39.067837,26.77,-0.052,-0.111,1.029,-3.479,0.977,0.726,90.578
185358,195200,21.786491,39.067837,26.77,-0.122,-0.056,0.986,-3.357,0.427,0.604,90.627
185463,195201,21.786438,39.067883,26.97,0.062,-0.221,1.017,-1.221,0.549,1.458,90.721
185570,195201,21.786438,39.067883,26.97,-0.018,-0.16,1.061,-2.747,0.244,1.702,90.862
185677,195201,21.786438,39.067883,26.97,-0.15,-0.117,0.936,-1.343,-1.709,1.58,91.017
185783,195201,21.786438,39.067883,26.97,-0.172,-0.046,0.97,-1.282,-1.038,1.153,91.162
185890,195201,21.786438,39.067883,26.97,-0.181,-0.022,0.997,-0.122,-2.136,2.068,91.335
185997,195201,21.786438,39.067883,26.97,-0.008,-0.104,1.146,-0.793,2.808,1.946,91.563
186101,195201,21.786438,39.067883,26.97,-0.102,-0.033,0.892,-0.977,-1.709,1.519,91.755
186208,195201,21.786438,39.067883,26.97,-0.025,-0.028,1.17,-2.686,1.038,1.397,91.895
186315,195201,21.786438,39.067883,26.97,-0.048,-0.162,1.019,0.793,-0.183,1.824,92.064
186421,195201,21.786438,39.067883,26.97,-0.13,-0.041,0.934,1.282,-1.221,1.885,92.293
186528,195202,21.786385,39.067928,27.33,-0.097,-0.123,1.089,-2.136,-0.244,1.641,92.482
186635,195202,21.786385,39.067928,27.33,-0.051,-0.125,1.041,-0.916,0.427,1.458,92.631
186741,195202,21.786385,39.067928,27.33,-0.13,-0.158,0.937,1.587,1.282,1.214,92.767
186845,195202,21.786385,39.067928,27.33,-0.069,-0.155,0.956,-1.953,-0.916,0.543,92.818
186952,195202,21.786385,39.067928,27.33,-0.047,-0.118,1.029,-3.174,1.77,-1.044,92.763
187058,195202,21.786385,39.067928,27.33,-0.003,-0.209,1.116,-2.686,1.343,-1.899,92.578
187165,195202,21.786385,39.067928,27.33,-0.029,-0.282,1.008,-0.977,0.854,-1.899,92.372
187272,195202,21.786385,39.067928,27.33,-0.081,-0.196,0.988,0.244,-2.441,-2.57,92.104
187379,195202,21.786385,39.067928,27.33,-0.059,-0.14,0.934,-0.122,0.61,-3.059,91.786
187483,195203,21.786331,39.067978,27.56,-0.048,-0.1,1.044,0.183,0.671,-2.875,91.461
187589,195203,21.786331,39.067978,27.56,-0.021,-0.227,0.987,0.305,0.793,-2.57,91.164
187696,195203,21.786331,39.067978,27.56,-0.073,-0.164,1.027,-3.723,0.916,-3.425,90.835
187803,195203,21.786331,39.067978,27.56,0.049,-0.24,0.964,-0.61,-0.488,-3.12,90.476
187911,195203,21.786331,39.067978,27.56,-0.081,-0.133,1.009,-1.16,1.587,-3.059,90.148
188017,195203,21.786331,39.067978,27.56,-0.047,-0.183,1.026,-0.122,-1.282,-2.997,89.815
188123,195203,21.786331,39.067978,27.56,0.035,-0.193,1.085,1.709,-2.014,-3.242,89.47
188230,195203,21.786331,39.067978,27.56,-0.092,-0.098,0.89,0.244,-3.296,-3.852,89.089
188337,195203,21.786331,39.067978,27.56,-0.091,-0.144,0.926,0.671,-1.526,-2.936,88.713
188444,195204,21.786278,39.068024,27.5,-0.094,-0.106,0.975,0.732,0.916,-2.753,88.423
188551,195204,21.786278,39.068024,27.5,-0.083,-0.184,0.923,1.099,0.122,-3.059,88.101
188658,195204,21.786278,39.068024,27.5,-0.143,-0.137,0.976,-2.136,1.648,-2.997,87.778
188766,195204,21.786278,39.068024,27.5,-0.063,-0.158,0.946,-0.244,-0.122,-2.814,87.471
188872,195204,21.786278,39.068024,27.5,-0.1,-0.172,0.962,0.244,0.366,-2.753,87.19
188978,195204,21.786278,39.068024,27.5,-0.06,-0.165,0.955,-0.061,-2.869,-2.631,86.899
189084,195204,21.786278,39.068024,27.5,0,-0.128,0.973,2.441,1.404,-2.448,86.623
189212,195204,21.786278,39.068024,27.5,-0.186,-0.071,1.033,-1.038,0.916,-2.997,86.352
189319,195204,21.786278,39.068024,27.5,-0.133,-0.153,0.903,-1.343,0.244,-2.387,86.067
189432,195205,21.786222,39.068066,26.45,-0.184,-0.186,0.875,-0.061,-0.549,-2.509,85.783
189539,195205,21.786222,39.068066,26.45,-0.083,-0.205,1.023,-1.038,-0.183,-2.082,85.551
189645,195205,21.786222,39.068066,26.45,-0.147,-0.093,0.974,0.244,0.122,-2.692,85.286
189752,195205,21.786222,39.068066,26.45,-0.124,-0.096,0.99,0.061,-2.502,-2.448,85.015
189858,195205,21.786222,39.068066,26.45,-0.202,-0.132,0.933,2.93,-3.723,-2.143,84.798
189964,195205,21.786222,39.068066,26.45,-0.188,-0.091,0.744,3.235,-3.174,-1.838,84.59
190071,195205,21.786222,39.068066,26.45,-0.058,-0.094,1.037,-0.244,-0.183,-0.373,84.494
190185,195205,21.786222,39.068066,26.45,-0.072,-0.145,0.923,-0.183,-0.427,-0.251,84.466
190291,195205,21.786222,39.068066,26.45,0,-0.088,1.073,-4.028,2.441,0.237,84.483
190399,195206,21.786167,39.068104,24.61,-0.092,-0.188,0.945,-0.244,1.099,0.359,84.5
190505,195206,21.786167,39.068104,24.61,-0.102,-0.101,1.069,2.075,1.709,0.482,84.543
190611,195206,21.786167,39.068104,24.61,-0.204,0.026,0.897,-3.418,1.343,0.848,84.603
190719,195206,21.786167,39.068104,24.61,-0.186,-0.125,1.062,-0.916,3.54,1.946,84.758
190833,195206,21.786167,39.068104,24.61,-0.181,-0.112,0.978,2.625,0.244,2.74,85.07
190940,195206,21.786167,39.068104,24.61,-0.244,-0.071,0.987,2.93,-1.648,3.045,85.399
191048,195206,21.786167,39.068104,24.61,-0.121,0.023,1.095,-0.671,-2.441,2.862,85.745
191155,195206,21.786167,39.068104,24.61,-0.005,-0.111,0.965,1.709,-0.183,3.594,86.02
191263,195206,21.786167,39.068104,24.61,-0.106,-0.103,0.918,-0.305,3.479,5.12,86.521
191370,195206,21.786167,39.068104,24.61,-0.153,-0.059,1.063,-0.793,2.747,4.998,87.088
191487,195207,21.786119,39.068138,20.84,-0.175,-0.024,1.111,-0.305,-0.854,5.731,87.759
191595,195207,21.786119,39.068138,20.84,-0.09,-0.049,0.959,-0.122,-3.418,6.768,88.432
191702,195207,21.786119,39.068138,20.84,-0.152,-0.061,0.931,-1.526,-1.831,6.951,89.188
191809,195207,21.786119,39.068138,20.84,-0.089,0.033,1.042,1.038,-0.916,8.111,89.983
191917,195207,21.786119,39.068138,20.84,0.052,0.042,1.154,-2.625,2.502,8.172,90.861
192024,195207,21.786119,39.068138,20.84,-0.083,0.067,0.989,-2.075,2.869,9.026,91.762
192131,195207,21.786119,39.068138,20.84,-0.055,0.066,1.041,-1.77,3.357,11.102,92.838
192245,195207,21.786119,39.068138,20.84,-0.083,0.107,1.005,-1.892,-0.427,12.444,94.257
192352,195207,21.786119,39.068138,20.84,-0.158,0.043,0.897,-2.625,-1.099,13.055,95.618
192459,195208,21.786081,39.068169,16.53,-0.129,0.007,0.91,-0.854,-1.526,14.825,97.174
192567,195208,21.786081,39.068169,16.53,-0.082,0.117,0.868,0.61,-0.549,15.313,98.842
192674,195208,21.786081,39.068169,16.53,-0.023,0.079,1.034,-7.019,1.892,15.923,100.495
192782,195208,21.786081,39.068169,16.53,-0.065,0.023,1.058,-2.808,-0.427,17.388,102.294
192895,195208,21.786081,39.068169,16.53,-0.114,-0.001,1.055,-0.244,0.549,17.754,104.301
193002,195208,21.786081,39.068169,16.53,-0.139,0.078,0.918,1.892,-0.977,19.036,106.265
193110,195208,21.786081,39.068169,16.53,-0.061,0.114,0.878,0.671,0.854,19.219,108.335
193217,195208,21.786081,39.068169,16.53,0.038,0.35,1.055,-5.432,-1.038,18.792,110.356
193325,195208,21.786081,39.068169,16.53,0.024,-0.082,1.06,-6.042,2.502,19.524,112.403
193432,195209,21.786055,39.068203,16.13,-0.136,0.044,1.116,-6.531,1.892,19.83,114.558
193541,195209,21.786055,39.068203,16.13,-0.139,-0.084,0.959,-0.183,-5.798,20.135,116.753
193649,195209,21.786055,39.068203,16.13,-0.024,-0.021,0.755,6.042,-4.761,21.111,119.007
193756,195209,21.786055,39.068203,16.13,-0.076,0.088,0.876,4.822,-3.967,19.586,121.177
193863,195209,21.786055,39.068203,16.13,-0.04,0.206,1.024,-2.136,-2.625,18.304,123.169
193971,195209,21.786055,39.068203,16.13,-0.058,0.047,0.989,-8.667,-1.038,18.365,125.158
194078,195209,21.786055,39.068203,16.13,-0.124,-0.026,0.877,-3.052,0.854,18.731,127.151
194185,195209,21.786055,39.068203,16.13,-0.057,-0.138,0.846,-0.427,4.944,19.708,129.237
194303,195209,21.786055,39.068203,16.13,-0.053,0.012,0.993,5.249,2.075,18.975,131.477
194410,195210,21.786043,39.068245,16.65,-0.049,0.094,1.041,2.747,3.357,19.586,133.505
194517,195210,21.786043,39.068245,16.65,-0.019,0.199,1.004,-3.113,3.662,17.815,135.468
194625,195210,21.786043,39.068245,16.65,-0.019,0.048,0.972,-3.418,3.479,18.975,137.412
194732,195210,21.786043,39.068245,16.65,-0.16,-0.068,0.921,-4.089,1.526,18.975,139.463
194839,195210,21.786043,39.068245,16.65,-0.032,0.039,1.112,-1.343,1.343,18.67,141.444
194956,195210,21.786043,39.068245,16.65,-0.056,0.015,1.065,0.366,-0.122,17.938,143.544
195063,195210,21.786043,39.068245,16.65,-0.172,-0.029,0.91,-1.648,1.282,17.327,145.422
195171,195210,21.786043,39.068245,16.65,-0.065,-0.012,1.042,-3.967,-0.122,17.083,147.239
195278,195210,21.786043,39.068245,16.65,-0.022,-0.01,1.008,-1.587,-1.16,17.754,149.118
195385,195211,21.786043,39.068291,17.01,-0.01,-0.037,1.012,-0.244,-0.916,17.266,151.007
195493,195211,21.786043,39.068291,17.01,0.104,-0.065,1.115,3.54,-0.916,16.778,152.818
195606,195211,21.786043,39.068291,17.01,-0.183,0.091,0.956,2.625,-0.61,15.435,154.563
195713,195211,21.786043,39.068291,17.01,-0.08,0.108,1.025,-11.353,0.732,14.947,156.172
195821,195211,21.786043,39.068291,17.01,-0.043,-0.021,1.124,-4.517,-1.16,15.801,157.83
196035,195211,21.786043,39.068291,17.01,-0.006,-0.027,1.104,-0.183,-3.113,13.299,160.916
196133,195211,21.786043,39.068291,17.01,0.07,0.077,0.999,3.052,1.526,13.055,162.22
196240,195211,21.786043,39.068291,17.01,-0.091,-0.002,0.876,-7.263,0.916,11.956,163.57
196351,195212,21.786057,39.068336,18.91,-0.032,0.016,0.911,-0.732,1.77,10.796,164.758
196459,195212,21.786057,39.068336,18.91,-0.074,-0.059,1.079,-4.456,0.549,9.82,165.898
196566,195212,21.786057,39.068336,18.91,-0.099,-0.046,1.007,3.479,2.136,8.965,166.897
196672,195212,21.786057,39.068336,18.91,-0.065,0.014,0.951,-0.122,-0.549,9.271,167.839
196780,195212,21.786057,39.068336,18.91,0.068,-0.042,1.077,-2.808,1.404,8.904,168.787
196885,195212,21.786057,39.068336,18.91,-0.02,-0.066,1.04,-4.211,-1.16,9.576,169.774
196999,195212,21.786057,39.068336,18.91,-0.049,-0.018,0.733,1.099,-1.343,9.026,170.795
197106,195212,21.786057,39.068336,18.91,0.022,0.032,1.066,1.831,3.54,9.576,171.84
197213,195212,21.786057,39.068336,18.91,0.063,0.053,1.288,-0.671,1.16,7.989,172.719
197320,195212,21.786057,39.068336,18.91,-0.044,0.08,1.006,0.366,0.305,8.233,173.573
197427,195213,21.786079,39.068382,20.27,-0.164,0.007,1,-2.869,0.427,7.989,174.432
197533,195213,21.786079,39.068382,20.27,0.157,-0.153,0.99,-1.221,-3.418,8.111,175.266
197641,195213,21.786079,39.068382,20.27,0.107,-0.149,1.042,-2.563,-0.549,7.623,176.079
197754,195213,21.786079,39.068382,20.27,-0.022,-0.03,1.113,-3.54,2.808,7.562,176.934
197861,195213,21.786079,39.068382,20.27,0.004,-0.065,1.087,-1.77,1.343,7.134,177.727
197969,195213,21.786079,39.068382,20.27,0.055,-0.016,0.873,0.916,-1.648,7.256,178.464
198076,195213,21.786079,39.068382,20.27,-0.022,-0.111,1.059,-5.554,1.099,6.219,179.17
198183,195213,21.786079,39.068382,20.27,0.022,-0.064,1.031,-1.953,0.61,5.975,179.845
198291,195213,21.786079,39.068382,20.27,0.041,0.003,1.206,-1.343,1.16,5.547,180.452
198404,195214,21.78611,39.068424,20.72,0.11,-0.126,1.139,-2.197,1.16,5.242,181.04
198511,195214,21.78611,39.068424,20.72,-0.039,0.047,1.137,-1.587,2.93,4.632,181.554
198619,195214,21.78611,39.068424,20.72,-0.05,-0.08,0.85,-3.54,-1.709,3.472,182.017
198726,195214,21.78611,39.068424,20.72,0.204,-0.258,1.084,-1.709,-0.183,4.205,182.389
198834,195214,21.78611,39.068424,20.72,-0.089,-0.21,0.93,-2.075,-2.747,2.862,182.749
198941,195214,21.78611,39.068424,20.72,0.186,-0.105,1.067,1.343,-2.136,2.19,182.994
199057,195214,21.78611,39.068424,20.72,-0.024,-0.048,1.004,-1.282,0.61,1.885,183.213
199165,195214,21.78611,39.068424,20.72,-0.025,-0.146,1.019,-1.16,0.793,1.641,183.397
199272,195214,21.78611,39.068424,20.72,0.042,-0.107,0.966,-3.052,-0.916,2.068,183.597
199379,195215,21.786144,39.068466,21.83,0.158,-0.097,0.941,2.625,0.366,1.763,183.788
199487,195215,21.786144,39.068466,21.83,0.01,0.028,1.058,0.427,1.343,0.604,183.889
199594,195215,21.786144,39.068466,21.83,0.104,-0.174,0.952,-4.395,-0.61,0.176,183.92
199701,195215,21.786144,39.068466,21.83,-0.084,-0.185,1.036,-1.587,-0.061,-0.19,183.913
199817,195215,21.786144,39.068466,21.83,-0.013,-0.073,1.1,-4.883,-1.404,-1.472,183.742
199924,195215,21.786144,39.068466,21.83,0.029,-0.187,1.069,-6.653,-2.258,-2.082,183.517
200032,195215,21.786144,39.068466,21.83,0.022,-0.19,0.943,-3.235,0.305,-1.777,183.29
200139,195215,21.786144,39.068466,21.83,-0.048,-0.098,1.02,-2.747,2.258,-1.716,183.132
200246,195215,21.786144,39.068466,21.83,-0.045,-0.129,0.996,1.16,0.122,-1.838,182.907
200354,195215,21.786144,39.068466,21.83,0.018,-0.089,1.152,-3.784,1.526,-2.265,182.696
200465,195216,21.786182,39.068512,23.07,-0.028,-0.276,0.958,-2.319,0.305,-2.204,182.451
200572,195216,21.786182,39.068512,23.07,-0.13,-0.149,0.968,3.052,-3.601,-2.265,182.237
200680,195216,21.786182,39.068512,23.07,-0.109,-0.106,0.864,3.723,-1.892,-2.448,181.982
200787,195216,21.786182,39.068512,23.07,-0.003,-0.212,0.941,-3.479,0.854,-2.021,181.727
200894,195216,21.786182,39.068512,23.07,0.05,-0.201,1.023,-0.122,0.183,-2.021,181.496
201002,195216,21.786182,39.068512,23.07,0.086,0.081,0.988,0.305,0.61,-2.448,181.254
201118,195216,21.786182,39.068512,23.07,-0.125,-0.25,0.878,0.671,-0.977,-1.96,181.026
201226,195216,21.786182,39.068512,23.07,-0.125,-0.148,0.938,3.357,-0.854,-2.021,180.818
201333,195216,21.786182,39.068512,23.07,-0.125,-0.064,0.965,0,0.671,-2.021,180.641
201440,195217,21.786221,39.068558,23.72,0,-0.163,0.874,-2.014,-0.549,-2.021,180.425
201548,195217,21.786221,39.068558,23.72,-0.089,-0.075,0.933,-0.366,-3.052,-1.716,180.209
201655,195217,21.786221,39.068558,23.72,-0.062,-0.242,0.957,1.77,-0.793,-0.922,180.078
201762,195217,21.786221,39.068558,23.72,-0.023,-0.136,1.119,-0.732,2.197,-1.411,179.96
201879,195217,21.786221,39.068558,23.72,-0.044,-0.167,0.99,-0.244,0.916,-1.777,179.752
201986,195217,21.786221,39.068558,23.72,-0.168,0.017,1.054,-2.136,-0.671,-1.227,179.596
202093,195217,21.786221,39.068558,23.72,0.107,-0.223,0.964,-0.61,-2.014,-1.472,179.451
202201,195217,21.786221,39.068558,23.72,-0.144,0.004,0.86,0.977,0.671,-1.899,179.288
202308,195217,21.786221,39.068558,23.72,-0.188,-0.189,0.893,-0.793,-0.244,-1.227,179.135
202416,195218,21.786257,39.068611,24.5,-0.162,-0.102,1.149,-0.977,0.61,-1.472,178.972
202529,195218,21.786257,39.068611,24.5,-0.059,-0.153,1.054,-1.465,-0.854,-0.983,178.861
202636,195218,21.786257,39.068611,24.5,-0.202,-0.011,0.937,2.014,-2.991,-1.777,178.758
202744,195218,21.786257,39.068611,24.5,-0.121,-0.071,0.73,3.418,-0.732,-1.227,178.626
202851,195218,21.786257,39.068611,24.5,-0.093,-0.123,0.98,0.122,2.197,-0.556,178.533
202958,195218,21.786257,39.068611,24.5,-0.133,-0.072,1.128,-0.916,0.549,-0.861,178.437
203066,195218,21.786257,39.068611,24.5,-0.062,-0.163,1.078,-2.075,1.099,-0.434,178.353
203179,195218,21.786257,39.068611,24.5,0.051,-0.099,1.208,3.967,-0.854,0.054,178.359
203286,195218,21.786257,39.068611,24.5,0.063,-0.009,1.001,1.709,-2.38,-0.617,178.309
203394,195219,21.786293,39.068661,24,-0.1,-0.024,1.042,-2.197,-1.526,-0.8,178.254
203501,195219,21.786293,39.068661,24,-0.123,-0.26,0.828,0.854,-2.869,0.237,178.237
203609,195219,21.786293,39.068661,24,-0.109,0.046,0.807,2.197,-1.953,0.176,178.308
203716,195219,21.786293,39.068661,24,-0.174,-0.005,0.864,-4.089,1.77,-0.678,178.266
203823,195219,21.786293,39.068661,24,0.04,-0.082,0.87,-1.77,4.028,-0.312,178.182
203941,195219,21.786293,39.068661,24,-0.198,-0.12,1.144,-2.136,-0.549,-0.19,178.159
204048,195219,21.786293,39.068661,24,-0.106,-0.187,1.082,-1.221,-2.808,-0.068,178.153
204155,195219,21.786293,39.068661,24,0.051,-0.24,0.983,5.554,-3.723,0.054,178.128
204263,195219,21.786293,39.068661,24,0.014,0.013,1.039,3.113,-4.944,-0.495,178.089
204370,195220,21.786329,39.068714,23.74,-0.022,-0.15,0.925,-1.343,-1.831,-1.105,177.992
204477,195220,21.786329,39.068714,23.74,-0.084,-0.152,0.958,-5.981,-0.244,-0.678,177.922
204587,195220,21.786329,39.068714,23.74,0.011,-0.084,0.843,-1.038,-0.671,0.054,177.928
204694,195220,21.786329,39.068714,23.74,0.142,-0.241,0.882,-2.136,1.587,-0.739,177.934
204801,195220,21.786329,39.068714,23.74,0.114,-0.197,1.15,1.526,3.662,0.115,177.89
204908,195220,21.786329,39.068714,23.74,0.026,0.051,0.882,-0.183,3.479,-0.861,177.838
205014,195220,21.786329,39.068714,23.74,0.05,-0.193,0.992,-2.258,0.977,0.054,177.771
205121,195220,21.786329,39.068714,23.74,0.003,-0.173,1.024,2.258,-2.441,0.115,177.748
205237,195220,21.786329,39.068714,23.74,0.006,-0.121,1.01,0.61,-2.563,0.726,177.832
205344,195221,21.786364,39.068764,24.37,0.171,-0.146,0.999,1.343,0.061,0.359,177.895
205451,195221,21.786364,39.068764,24.37,0.083,-0.06,0.999,-3.357,5.493,0.97,177.952
205557,195221,21.786364,39.068764,24.37,-0.103,-0.046,0.996,-1.16,2.319,1.824,178.124
205663,195221,21.786364,39.068764,24.37,-0.015,0.005,0.873,-2.93,0.061,0.604,178.234
205770,195221,21.786364,39.068764,24.37,0.01,0.019,1.046,-2.014,0.61,1.824,178.391
205876,195221,21.786364,39.068764,24.37,-0.08,-0.125,0.965,-1.099,-1.831,1.58,178.574
205993,195221,21.786364,39.068764,24.37,-0.072,-0.136,1.085,-1.404,-0.61,1.336,178.731
206100,195221,21.786364,39.068764,24.37,-0.127,-0.22,0.767,2.686,-4.028,1.702,178.873
206207,195221,21.786364,39.068764,24.37,-0.061,-0.014,0.962,1.099,-2.441,1.336,179.017
206316,195221,21.786364,39.068764,24.37,-0.007,-0.091,1.03,-2.502,0.61,1.092,179.158
206423,195222,21.786402,39.068817,25.16,-0.207,-0.087,0.963,1.465,2.625,1.214,179.302
206530,195222,21.786402,39.068817,25.16,-0.173,-0.086,0.913,5.31,2.197,1.519,179.447
206648,195222,21.786402,39.068817,25.16,-0.236,-0.003,0.998,-2.197,-1.587,0.787,179.54
206756,195222,21.786402,39.068817,25.16,0.103,-0.113,1.098,-0.183,-2.808,1.092,179.632
206863,195222,21.786402,39.068817,25.16,0.045,-0.134,1.032,0.244,-1.709,1.58,179.758
206971,195222,21.786402,39.068817,25.16,0.093,0.067,0.932,0.244,0.732,0.543,179.905
207078,195222,21.786402,39.068817,25.16,-0.057,-0.045,0.727,-0.793,2.686,-0.129,179.91
207187,195222,21.786402,39.068817,25.16,-0.225,0.026,0.976,1.709,0.061,0.909,180.013
207300,195222,21.786402,39.068817,25.16,-0.019,-0.113,1.03,2.502,-2.38,1.153,180.144
207407,195223,21.78644,39.068874,25.78,0.447,0.02,1.213,-0.061,-2.197,0.237,180.22
207515,195223,21.78644,39.068874,25.78,-0.286,-0.252,0.796,-7.507,2.625,1.031,180.214
207622,195223,21.78644,39.068874,25.78,-0.079,-0.141,0.892,0.244,3.54,0.176,180.237
207729,195223,21.78644,39.068874,25.78,0.059,0.124,0.853,1.587,-4.822,0.909,180.314
207837,195223,21.78644,39.068874,25.78,-0.255,-0.03,0.7,-0.244,-4.211,-0.373,180.284
207944,195223,21.78644,39.068874,25.78,-0.053,-0.024,1.168,7.507,-1.526,0.726,180.357
208054,195223,21.78644,39.068874,25.78,-0.405,-0.122,1.068,-2.502,1.282,0.115,180.37
208162,195223,21.78644,39.068874,25.78,-0.011,-0.216,0.959,4.028,1.038,0.482,180.432
208269,195223,21.78644,39.068874,25.78,-0.111,0.069,1.03,3.296,-1.648,0.848,180.493
208376,195224,21.78648,39.068928,26.04,-0.347,-0.004,0.994,-0.977,0.916,-1.227,180.473
208484,195224,21.78648,39.068928,26.04,-0.068,-0.087,1.091,-0.61,0.916,0.543,180.472
208591,195224,21.78648,39.068928,26.04,-0.191,-0.221,1.007,1.038,-1.648,1.031,180.608
208701,195224,21.78648,39.068928,26.04,-0.033,-0.018,0.999,0.549,-2.808,-0.068,180.601
208808,195224,21.78648,39.068928,26.04,-0.099,-0.158,1.154,-0.366,-2.075,0.482,180.607
208915,195224,21.78648,39.068928,26.04,-0.046,-0.007,1.026,5.432,3.601,1.519,180.76
209023,195224,21.78648,39.068928,26.04,-0.173,0.12,1.082,-3.235,1.343,1.58,180.974
209130,195224,21.78648,39.068928,26.04,-0.073,-0.002,1.138,-1.77,-2.38,1.763,181.194
209238,195224,21.78648,39.068928,26.04,-0.37,-0.282,0.524,0.427,-6.836,2.129,181.445
209347,195224,21.78648,39.068928,26.04,0.041,-0.125,0.928,1.099,-1.526,2.618,181.735
209463,195225,21.78652,39.068981,25.96,-0.189,0.095,0.9,4.578,0.183,2.129,181.984
209570,195225,21.78652,39.068981,25.96,0.024,0.034,0.92,-3.723,2.869,1.641,182.185
209678,195225,21.78652,39.068981,25.96,0.162,-0.037,1.046,-8.484,2.258,1.519,182.362
209785,195225,21.78652,39.068981,25.96,-0.12,-0.158,1.041,-0.122,-7.935,2.496,182.591
209893,195225,21.78652,39.068981,25.96,0.116,-0.041,0.961,5.371,-4.211,2.313,182.824
210000,195225,21.78652,39.068981,25.96,-0.039,0.054,0.911,-4.089,-2.136,0.482,182.981
210115,195225,21.78652,39.068981,25.96,0.007,-0.261,1.015,-0.183,3.845,1.702,183.177
210223,195225,21.78652,39.068981,25.96,-0.061,-0.328,0.777,6.287,6.531,2.313,183.427
210330,195225,21.78652,39.068981,25.96,-0.208,-0.067,1.252,-8.728,-0.427,-0.434,183.445
210437,195226,21.786564,39.069035,26.42,0.129,-0.184,1.076,0,-3.601,-0.8,183.323
210545,195226,21.786564,39.069035,26.42,-0.029,-0.164,0.92,-1.16,-1.038,-0.495,183.281
210652,195226,21.786564,39.069035,26.42,0.024,0.124,0.882,-2.075,-2.869,-1.044,183.251
210768,195226,21.786564,39.069035,26.42,-0.147,0.053,0.975,-2.136,1.465,-3.181,182.882
210876,195226,21.786564,39.069035,26.42,-0.138,-0.203,0.826,-5.554,1.221,-1.105,182.689
210983,195226,21.786564,39.069035,26.42,-0.213,-0.262,1.006,4.639,1.892,-1.227,182.531
211091,195226,21.786564,39.069035,26.42,-0.092,-0.269,1.178,4.822,-2.075,-1.289,182.362
211198,195226,21.786564,39.069035,26.42,-0.192,-0.052,0.919,2.258,-3.845,-2.692,182.121
211305,195226,21.786564,39.069035,26.42,-0.334,-0.209,0.772,-1.892,-7.629,-3.608,181.771
211413,195227,21.786606,39.069088,26.54,-0.464,-0.062,0.851,-1.343,-2.197,-2.997,181.479
211525,195227,21.786606,39.069088,26.54,-0.442,-0.202,0.819,0.061,3.357,-2.692,181.177
211632,195227,21.786606,39.069088,26.54,-0.566,0.002,0.874,1.099,2.563,-3.974,180.866
211740,195227,21.786606,39.069088,26.54,-0.347,-0.162,0.816,-0.305,-1.099,-5.012,180.393
211847,195227,21.786606,39.069088,26.54,-0.24,-0.312,1.105,0.488,2.319,-4.035,179.894
211954,195227,21.786606,39.069088,26.54,0.039,0.03,1.232,-0.549,-0.122,-4.645,179.432
212062,195227,21.786606,39.069088,26.54,0.003,-0.16,1.046,0.549,-2.197,-3.486,179.015
212174,195227,21.786606,39.069088,26.54,0.134,-0.093,0.672,-0.854,0.183,-4.279,178.536
212282,195227,21.786606,39.069088,26.54,-0.281,-0.459,0.986,-5.615,1.587,-3.608,178.146
212389,195228,21.786648,39.069141,25.17,-0.494,-0.19,0.856,5.066,-3.906,-3.425,177.771
212496,195228,21.786648,39.069141,25.17,0.167,-0.031,1.114,0.244,-5.31,-2.814,177.459
212604,195228,21.786648,39.069141,25.17,0.203,0.026,1.071,-4.15,1.709,-3.059,177.112
212712,195228,21.786648,39.069141,25.17,-0.209,0.038,0.743,0.854,2.747,-1.227,176.96
212826,195228,21.786648,39.069141,25.17,-0.338,0.05,0.839,3.052,4.578,0.543,177.022
212934,195228,21.786648,39.069141,25.17,-0.387,0.28,0.893,-0.244,-0.671,0.115,177.118
213041,195228,21.786648,39.069141,25.17,-0.051,-0.129,1.066,-4.578,-2.38,0.604,177.114
213148,195228,21.786648,39.069141,25.17,-0.244,-0.197,0.895,-4.517,-4.517,1.031,177.183
213256,195228,21.786648,39.069141,25.17,0.001,-0.234,1.167,4.211,-1.404,1.824,177.307
213363,195229,21.786682,39.069195,23.99,0.136,-0.092,0.961,1.953,1.038,0.848,177.434
213471,195229,21.786682,39.069195,23.99,-0.405,-0.102,1.006,3.906,-2.075,0.359,177.508
213588,195229,21.786682,39.069195,23.99,0.043,0.109,0.587,3.845,-2.258,-0.068,177.5
213695,195229,21.786682,39.069195,23.99,-0.334,-0.083,1.113,-1.221,5.859,0.909,177.528
213802,195229,21.786682,39.069195,23.99,-0.09,-0.137,1.076,-7.629,-3.235,-1.289,177.448
213910,195229,21.786682,39.069195,23.99,0.004,-0.347,0.914,6.47,-3.723,1.885,177.533
214015,195229,21.786682,39.069195,23.99,-0.018,-0.098,0.866,4.395,-7.08,0.604,177.705
214123,195229,21.786682,39.069195,23.99,0.433,0.116,1.083,-1.648,1.648,-1.166,177.613
214244,195229,21.786682,39.069195,23.99,0.169,-0.102,1.246,-10.254,8.179,-0.861,177.51
214352,195229,21.786682,39.069195,23.99,-0.316,-0.105,0.907,0.305,4.517,0.604,177.578
214461,195230,21.786716,39.069248,22.85,-0.102,-0.146,1.156,0.916,2.258,-0.007,177.603
214567,195230,21.786716,39.069248,22.85,-0.001,-0.096,1.123,-3.052,-1.526,-0.434,177.55
214676,195230,21.786716,39.069248,22.85,-0.097,0.037,0.887,1.892,-0.183,-0.617,177.5
214783,195230,21.786716,39.069248,22.85,-0.017,-0.029,0.99,-4.028,2.258,-1.044,177.435
214899,195230,21.786716,39.069248,22.85,-0.202,0.182,0.821,1.282,0.061,-0.556,177.37
215007,195230,21.786716,39.069248,22.85,0.023,-0.245,1.178,-5.798,4.15,-0.434,177.301
215114,195230,21.786716,39.069248,22.85,-0.125,-0.147,0.968,7.202,-2.93,0.482,177.335
215221,195230,21.786716,39.069248,22.85,-0.361,0.055,0.742,2.747,-6.104,-0.495,177.354
215329,195230,21.786716,39.069248,22.85,-0.368,-0.016,0.896,0.061,-1.404,-1.289,177.305
215436,195231,21.786749,39.069298,22.23,-0.081,-0.088,0.877,-2.136,-0.549,-0.251,177.174
215543,195231,21.786749,39.069298,22.23,0.013,-0.106,0.999,0.366,2.502,1.092,177.285
215649,195231,21.786749,39.069298,22.23,-0.241,-0.086,0.721,0.854,0.061,0.054,177.29
215756,195231,21.786749,39.069298,22.23,-0.237,0.003,1.062,9.521,-0.305,0.115,177.292
215863,195231,21.786749,39.069298,22.23,0.016,-0.031,1.042,-1.831,-1.587,-0.068,177.32
215971,195231,21.786749,39.069298,22.23,0.042,-0.076,1.156,-0.793,0.671,-0.007,177.259
216078,195231,21.786749,39.069298,22.23,-0.123,-0.046,0.923,-1.099,-0.244,0.237,177.271
216186,195231,21.786749,39.069298,22.23,-0.183,-0.154,0.98,0.916,0.305,0.543,177.317
216303,195231,21.786749,39.069298,22.23,-0.165,-0.036,0.913,-3.174,3.296,-0.068,177.309
216410,195232,21.786781,39.069344,21.27,-0.054,-0.096,0.836,0.183,1.099,0.115,177.329
216518,195232,21.786781,39.069344,21.27,0.153,-0.028,1.191,-0.793,1.343,1.092,177.372
216625,195232,21.786781,39.069344,21.27,-0.315,-0.068,1.034,1.465,0.488,1.214,177.519
216732,195232,21.786781,39.069344,21.27,-0.25,-0.06,0.854,-1.526,-3.967,0.726,177.642
216840,195232,21.786781,39.069344,21.27,-0.226,-0.046,0.906,1.404,-3.906,1.275,177.756
216957,195232,21.786781,39.069344,21.27,-0.342,0.006,0.936,-1.465,-4.028,1.275,177.906
217064,195232,21.786781,39.069344,21.27,0.039,-0.109,1.038,2.625,-0.671,1.824,178.068
217172,195232,21.786781,39.069344,21.27,0.408,-0.096,1.137,-2.38,4.578,1.885,178.276
217279,195232,21.786781,39.069344,21.27,-0.062,0.032,0.896,-2.808,0.366,1.214,178.439
217387,195232,21.786781,39.069344,21.27,-0.152,-0.165,0.84,-0.732,0.122,1.702,178.589
217495,195232,21.786781,39.069344,21.27,-0.179,-0.149,0.873,-3.113,-3.479,0.848,178.692
217602,195233,21.786812,39.069389,20.69,-0.173,-0.092,0.919,-0.977,-0.916,1.824,178.855
217716,195233,21.786812,39.069389,20.69,-0.153,0.08,1,3.296,-4.089,1.153,178.986
217823,195233,21.786812,39.069389,20.69,0.314,-0.121,1.169,-3.479,0.305,1.763,179.139
217930,195233,21.786812,39.069389,20.69,0.205,-0.115,1.021,-1.648,2.93,1.58,179.272
218038,195233,21.786812,39.069389,20.69,-0.089,-0.147,0.889,-0.977,1.648,0.726,179.386
218145,195233,21.786812,39.069389,20.69,-0.321,-0.042,0.912,1.404,-1.099,1.031,179.516
218252,195233,21.786812,39.069389,20.69,-0.164,-0.069,0.968,-1.16,-1.526,1.153,179.632
218363,195233,21.786812,39.069389,20.69,-0.18,-0.182,1.048,-4.456,1.587,1.275,179.774
218470,195234,21.786842,39.069435,20.18,0.027,-0.028,1.007,2.441,-0.366,1.458,179.925
218578,195234,21.786842,39.069435,20.18,0.295,-0.022,1.216,-2.319,0.854,1.336,180.075
218685,195234,21.786842,39.069435,20.18,-0.018,-0.086,0.922,-2.869,2.747,1.458,180.227
218792,195234,21.786842,39.069435,20.18,-0.221,-0.156,1.048,-2.38,0.61,0.97,180.321
218900,195234,21.786842,39.069435,20.18,0.015,-0.016,1.069,-5.493,0.183,0.787,180.42
219010,195234,21.786842,39.069435,20.18,-0.07,-0.118,1.062,-3.113,3.174,0.726,180.5
219117,195234,21.786842,39.069435,20.18,-0.126,-0.23,1.103,2.808,0.122,1.275,180.585
219225,195234,21.786842,39.069435,20.18,-0.28,-0.198,0.896,-2.563,-1.16,0.176,180.669
219332,195234,21.786842,39.069435,20.18,-0.18,0.031,0.813,-4.578,-0.366,-0.312,180.675
219439,195234,21.786842,39.069435,20.18,-0.026,0.208,1.173,0.122,1.282,-0.495,180.687
219547,195235,21.786875,39.069477,20.23,-0.072,-0.309,0.91,-1.282,-3.235,0.359,180.684
219654,195235,21.786875,39.069477,20.23,0.027,-0.062,1.148,-0.061,0.183,0.787,180.796
219766,195235,21.786875,39.069477,20.23,0.012,-0.102,0.935,-3.174,2.319,-1.594,180.617
219873,195235,21.786875,39.069477,20.23,-0.02,-0.228,1.083,-2.686,-0.122,-1.716,180.374
219980,195235,21.786875,39.069477,20.23,-0.109,-0.191,0.978,0.793,0.305,-0.068,180.323
220088,195235,21.786875,39.069477,20.23,-0.041,-0.062,1.069,1.404,4.639,-0.861,180.281
220195,195235,21.786875,39.069477,20.23,0.012,-0.022,1.029,-0.122,-0.916,-1.594,180.12
220302,195235,21.786875,39.069477,20.23,0.182,-0.124,1.126,-3.357,0,-1.777,179.917
220417,195235,21.786875,39.069477,20.23,0.113,-0.189,1.115,-0.854,1.587,-0.434,179.867
220524,195236,21.786905,39.069519,19.47,-0.194,-0.218,0.891,-2.563,-0.305,-1.227,179.765
220631,195236,21.786905,39.069519,19.47,-0.029,-0.181,0.933,0,-0.61,-1.35,179.595
220739,195236,21.786905,39.069519,19.47,-0.015,-0.175,1.092,-2.747,2.686,-0.861,179.471
220846,195236,21.786905,39.069519,19.47,0.042,-0.168,0.949,0.427,1.587,-0.861,179.369
220954,195236,21.786905,39.069519,19.47,0.014,-0.155,1.116,-0.122,1.16,-0.739,179.242
221070,195236,21.786905,39.069519,19.47,0.085,-0.08,1.023,3.662,1.465,-1.044,179.121
221177,195236,21.786905,39.069519,19.47,-0.036,-0.166,0.938,-2.441,4.089,-1.289,178.972
221285,195236,21.786905,39.069519,19.47,-0.278,-0.12,0.972,0.732,-0.916,-1.533,178.815
221392,195236,21.786905,39.069519,19.47,-0.276,-0.076,0.979,1.526,-1.526,-0.861,178.71
221499,195236,21.786905,39.069519,19.47,-0.139,-0.137,0.862,1.099,2.441,-0.922,178.607
221607,195237,21.786936,39.069557,18.73,-0.156,-0.178,1.016,2.808,1.77,-1.166,178.476
221714,195237,21.786936,39.069557,18.73,-0.165,-0.091,1.071,0,-1.77,-0.678,178.381
221831,195237,21.786936,39.069557,18.73,-0.033,-0.091,1.023,0.671,-2.686,-0.8,178.288
221940,195237,21.786936,39.069557,18.73,0.064,-0.235,1.083,-1.953,0.427,-0.739,178.202
222047,195237,21.786936,39.069557,18.73,-0.013,-0.006,1.001,-5.737,2.869,-1.227,178.064
222155,195237,21.786936,39.069557,18.73,-0.192,-0.134,1.174,-3.357,-0.427,-0.556,178.004
222263,195237,21.786936,39.069557,18.73,-0.293,-0.143,1.179,1.648,-2.136,-0.19,178.019
222370,195237,21.786936,39.069557,18.73,-0.252,-0.162,1.05,3.052,-3.174,-0.861,177.921
222488,195237,21.786936,39.069557,18.73,-0.247,-0.049,0.784,-1.526,-3.052,-0.983,177.805
222595,195238,21.786963,39.069595,16.2,-0.061,-0.068,0.977,1.709,-3.052,-0.739,177.736
222702,195238,21.786963,39.069595,16.2,0.096,-0.157,1.047,-7.935,-5.676,-1.716,177.613
222811,195238,21.786963,39.069595,16.2,-0.091,-0.087,0.859,-0.732,0.366,-0.861,177.469
222918,195238,21.786963,39.069595,16.2,-0.035,-0.118,0.998,-5.859,1.16,-0.434,177.41
223024,195238,21.786963,39.069595,16.2,-0.097,-0.114,0.996,-1.953,1.038,-0.739,177.36
223132,195238,21.786963,39.069595,16.2,-0.095,-0.098,0.969,-0.183,-2.38,-0.922,177.241
223249,195238,21.786963,39.069595,16.2,-0.175,-0.161,0.99,5.127,-3.54,0.543,177.305
223357,195238,21.786963,39.069595,16.2,-0.245,-0.077,0.987,2.563,-4.639,-0.678,177.294
223464,195238,21.786963,39.069595,16.2,-0.059,-0.035,1.041,4.456,-3.845,-0.983,177.194
223572,195239,21.786983,39.069626,12.63,0.029,0.029,1.021,-0.793,-7.019,-1.166,177.059
223680,195239,21.786983,39.069626,12.63,-0.017,-0.179,0.793,-2.869,-8.362,-0.861,176.934
223787,195239,21.786983,39.069626,12.63,-0.159,-0.068,0.929,-5.31,-6.287,-0.434,176.944
223901,195239,21.786983,39.069626,12.63,-0.175,-0.218,1.027,0.61,-6.287,-0.129,176.93
224008,195239,21.786983,39.069626,12.63,-0.137,-0.004,1.001,-3.479,-7.019,-1.35,176.838
224115,195239,21.786983,39.069626,12.63,-0.133,-0.186,1.005,0.427,-5.188,0.42,176.786
224223,195239,21.786983,39.069626,12.63,0.111,-0.172,1.122,7.324,-5.066,0.787,176.851
224330,195239,21.786983,39.069626,12.63,0.002,-0.069,1.034,0.732,-2.869,-0.983,176.808
224437,195239,21.786983,39.069626,12.63,0.007,-0.013,1.12,-3.357,-3.418,-1.105,176.69
224555,195240,21.787001,39.069653,11.36,-0.017,-0.213,1.036,-1.587,-2.563,-0.007,176.689
224662,195240,21.787001,39.069653,11.36,0.021,-0.151,0.854,-2.136,-1.343,-1.533,176.631
224770,195240,21.787001,39.069653,11.36,0.077,-0.233,0.938,-0.549,3.052,-1.105,176.415
224877,195240,21.787001,39.069653,11.36,-0.023,-0.135,0.924,-1.343,1.953,-1.105,176.383
224984,195240,21.787001,39.069653,11.36,-0.061,-0.098,0.75,5.981,1.953,-2.692,176.139
225091,195240,21.787001,39.069653,11.36,-0.052,-0.066,0.924,-1.831,2.319,-0.739,175.965
225199,195240,21.787001,39.069653,11.36,-0.074,-0.129,1.083,2.258,4.089,-0.8,175.914
225316,195240,21.787001,39.069653,11.36,-0.054,-0.065,1.019,-2.38,2.93,-2.814,175.587
225424,195240,21.787001,39.069653,11.36,-0.003,-0.183,0.858,-0.854,2.014,-3.791,175.194
225531,195241,21.787016,39.069672,8.26,-0.007,-0.178,0.936,-6.287,5.981,-4.768,174.694
225637,195241,21.787016,39.069672,8.26,-0.013,-0.217,0.985,-1.099,5.188,-5.317,174.156
225745,195241,21.787016,39.069672,8.26,0.003,-0.194,0.981,-0.549,4.211,-6.66,173.513
225861,195241,21.787016,39.069672,8.26,-0.131,-0.236,1.115,0.61,3.479,-7.514,172.641
225968,195241,21.787016,39.069672,8.26,-0.196,-0.336,1.214,14.16,-1.526,-3.974,172.095
226076,195241,21.787016,39.069672,8.26,-0.034,-0.012,0.999,8.545,-4.761,-8.552,171.448
226183,195241,21.787016,39.069672,8.26,0,0.168,0.836,-1.892,-4.333,-9.345,170.321
226290,195241,21.787016,39.069672,8.26,0.087,-0.02,0.814,-9.216,-0.427,-2.509,169.777
226396,195241,21.787016,39.069672,8.26,-0.013,-0.229,0.854,-7.996,1.038,-5.683,169.422
226504,195242,21.787024,39.069691,5.78,0.012,-0.188,1.007,-3.601,2.808,-11.054,168.172
226611,195242,21.787024,39.069691,5.78,-0.027,-0.219,1.068,1.526,1.404,-4.951,167.379
226717,195242,21.787024,39.069691,5.78,-0.059,-0.116,1.059,4.761,1.465,-6.171,166.888
226823,195242,21.787024,39.069691,5.78,-0.015,-0.055,1.02,1.953,0.732,-9.467,165.934
226930,195242,21.787024,39.069691,5.78,0.018,-0.036,0.962,-1.16,-0.122,-7.209,165.045
227036,195242,21.787024,39.069691,5.78,0.009,-0.117,0.954,-3.235,-1.038,-7.148,164.323
227150,195242,21.787024,39.069691,5.78,0.043,-0.168,1,-3.845,0.977,-9.04,163.301
227257,195242,21.787024,39.069691,5.78,0.016,-0.158,0.994,-2.38,0.366,-8.735,162.322
227364,195242,21.787024,39.069691,5.78,0.009,-0.158,1.039,-2.502,0.61,-8.979,161.405
227471,195243,21.787027,39.069702,4.41,-0.022,-0.183,0.988,-1.16,-0.61,-10.383,160.351
227578,195243,21.787027,39.069702,4.41,-0.001,-0.255,1.054,3.845,5.432,-7.27,159.394
227685,195243,21.787027,39.069702,4.41,-0.026,-0.181,0.939,9.827,8.179,-7.941,158.662
227802,195243,21.787027,39.069702,4.41,-0.021,-0.025,0.942,6.714,3.54,-12.153,157.24
227910,195243,21.787027,39.069702,4.41,-0.025,-0.004,0.994,1.099,-0.854,-12.214,155.885
228017,195243,21.787027,39.069702,4.41,-0.034,-0.051,1.048,-2.808,0.061,-11.664,154.65
228125,195243,21.787027,39.069702,4.41,-0.062,-0.072,1.018,-2.991,2.625,-13.373,153.256
228232,195243,21.787027,39.069702,4.41,-0.058,-0.152,0.935,-2.502,0.671,-11.115,151.957
228339,195243,21.787027,39.069702,4.41,-0.031,-0.213,0.886,0.427,-1.831,-11.237,150.819
228447,195244,21.787027,39.069714,5.08,-0.017,-0.154,0.942,2.258,-1.038,-13.496,149.424
228563,195244,21.787027,39.069714,5.08,-0.037,-0.088,1.041,2.197,-0.854,-12.702,147.95
228670,195244,21.787027,39.069714,5.08,-0.032,-0.076,1.043,-0.61,-1.465,-13.251,146.58
228778,195244,21.787027,39.069714,5.08,-0.007,-0.083,0.963,-3.174,-2.319,-13.862,145.084
228885,195244,21.787027,39.069714,5.08,0.003,-0.142,0.936,-3.967,-2.869,-13.984,143.609
228993,195244,21.787027,39.069714,5.08,0.029,-0.192,0.96,-4.272,-4.272,-15.571,142.012
229100,195244,21.787027,39.069714,5.08,0.077,-0.195,0.993,-1.587,-1.77,-15.632,140.328
229213,195244,21.787027,39.069714,5.08,0.037,-0.193,1.004,-0.427,-0.549,-16.059,138.512
229321,195244,21.787027,39.069714,5.08,0.062,-0.153,0.985,-0.854,-1.343,-17.341,136.693
229428,195245,21.787025,39.069729,5.62,0.041,-0.246,0.984,-1.709,-0.549,-17.707,134.779
229535,195245,21.787025,39.069729,5.62,0.037,-0.308,1.014,5.127,3.845,-15.632,133.045
229643,195245,21.787025,39.069729,5.62,-0.023,-0.17,1.002,7.507,3.113,-17.097,131.288
229750,195245,21.787025,39.069729,5.62,-0.005,-0.083,0.998,3.113,0.122,-20.331,129.215
229863,195245,21.787025,39.069729,5.62,0.021,-0.107,0.968,-1.343,-1.16,-19.538,127.006
229971,195245,21.787025,39.069729,5.62,0.037,-0.207,0.977,-3.052,-1.038,-20.209,124.887
230180,195245,21.787025,39.069729,5.62,0.037,-0.209,1.027,2.014,-0.549,-21.064,120.522
230288,195245,21.787025,39.069729,5.62,0.005,-0.19,0.99,1.953,1.892,-23.261,118.106
230395,195246,21.787016,39.069748,9.23,0.012,-0.194,0.934,0.671,-0.61,-22.529,115.644
230507,195246,21.787016,39.069748,9.23,0.035,-0.229,0.979,0.549,0.122,-23.383,113.024
230615,195246,21.787016,39.069748,9.23,0.023,-0.17,0.999,-0.305,1.099,-24.482,110.404
230722,195246,21.787016,39.069748,9.23,-0.005,-0.187,0.979,-0.916,0.854,-22.529,107.909
230829,195246,21.787016,39.069748,9.23,0.013,-0.208,1.033,-0.732,0.549,-21.857,105.576
230937,195246,21.787016,39.069748,9.23,0.047,-0.211,0.969,0.366,-1.16,-21.247,103.24
231044,195246,21.787016,39.069748,9.23,0.059,-0.175,1.031,1.526,-0.183,-19.294,101.068
231151,195246,21.787016,39.069748,9.23,0.041,-0.108,0.979,2.747,-0.305,-16.669,99.188
231262,195246,21.787016,39.069748,9.23,0.02,-0.055,0.971,1.77,0.244,-14.594,97.568
231369,195246,21.787016,39.069748,9.23,0.064,-0.094,0.984,0.671,-0.671,-11.787,96.176
231476,195247,21.786997,39.069771,13.19,0.073,-0.041,1.048,-0.488,0.427,-8.613,95.134
231584,195247,21.786997,39.069771,13.19,0.028,-0.042,1.043,-0.183,0.793,-5.744,94.407
231691,195247,21.786997,39.069771,13.19,0.053,-0.043,0.972,0,0.793,-3.12,93.984
231799,195247,21.786997,39.069771,13.19,0.039,-0.049,0.982,-1.648,0,-2.143,93.741
231915,195247,21.786997,39.069771,13.19,0.039,-0.105,1.009,-1.099,-0.305,-2.326,93.471
232022,195247,21.786997,39.069771,13.19,0.05,-0.102,0.929,0.427,-0.793,-2.265,93.227
232130,195247,21.786997,39.069771,13.19,0.037,-0.103,0.994,-0.977,-0.549,-2.326,92.981
232237,195247,21.786997,39.069771,13.19,0.037,-0.134,0.989,0.061,0.183,-2.448,92.712
232344,195247,21.786997,39.069771,13.19,0.042,-0.094,0.94,-0.854,-0.061,-2.448,92.447
232452,195247,21.786997,39.069771,13.19,0.056,-0.098,0.995,0.183,-0.427,-2.326,92.182
232571,195248,21.786968,39.069794,15.87,0.047,-0.11,1.018,-0.61,1.038,-2.57,91.876
232678,195248,21.786968,39.069794,15.87,0.023,-0.106,0.949,0,0.488,-2.631,91.594
232786,195248,21.786968,39.069794,15.87,0.054,-0.108,1.027,-1.221,-0.671,-2.387,91.316
232893,195248,21.786968,39.069794,15.87,0.083,-0.128,0.958,-0.671,-1.648,-2.692,91.045
233000,195248,21.786968,39.069794,15.87,0.063,-0.126,0.975,-1.465,-1.282,-2.936,90.731
233107,195248,21.786968,39.069794,15.87,0.07,-0.168,0.996,0.122,-1.526,-2.448,90.444
233214,195248,21.786968,39.069794,15.87,0.061,-0.106,0.984,0.427,-0.732,-2.265,90.189
233332,195248,21.786968,39.069794,15.87,0.044,-0.035,1.044,-0.427,0.61,-0.739,90.102
233439,195248,21.786968,39.069794,15.87,0.042,-0.042,0.988,0.61,-0.549,0.42,90.115
233545,195248,21.786968,39.069794,15.87,0.079,-0.099,0.95,0.122,0.244,0.726,90.192
233653,195249,21.786932,39.069828,20.74,-0.002,-0.062,1.018,-0.488,-0.427,0.604,90.254
233760,195249,21.786932,39.069828,20.74,0.079,-0.102,1.06,-0.977,-0.793,0.726,90.334
233866,195249,21.786932,39.069828,20.74,0.041,-0.048,0.96,-0.427,0.305,0.604,90.404
233983,195249,21.786932,39.069828,20.74,0.033,-0.068,0.908,1.526,-0.671,1.031,90.525
234090,195249,21.786932,39.069828,20.74,0.031,-0.066,0.98,0.427,-0.732,1.092,90.643
234196,195249,21.786932,39.069828,20.74,0.035,-0.037,0.99,-0.488,-1.526,0.726,90.72
234302,195249,21.786932,39.069828,20.74,0.074,-0.091,0.922,0.549,-1.16,0.97,90.824
234409,195249,21.786932,39.069828,20.74,0.025,-0.063,0.977,-0.732,-0.366,0.787,90.928
234517,195249,21.786932,39.069828,20.74,0.049,-0.044,1.066,-0.305,0.488,1.031,91.029
234630,195250,21.786892,39.069862,20.93,0.041,-0.076,0.905,2.686,-0.244,0.787,91.119
234738,195250,21.786892,39.069862,20.93,0.017,-0.054,0.945,0.854,-1.16,0.97,91.228
234846,195250,21.786892,39.069862,20.93,0.108,-0.069,1.004,1.709,-2.014,0.848,91.314
234952,195250,21.786892,39.069862,20.93,0.099,-0.093,0.968,0.977,-0.305,0.42,91.367
235059,195250,21.786892,39.069862,20.93,-0.023,-0.006,1.075,-0.854,-2.502,0.543,91.439
235168,195250,21.786892,39.069862,20.93,0.132,-0.114,1.1,-2.136,0.61,0.543,91.487
235274,195250,21.786892,39.069862,20.93,0.047,-0.087,0.915,0.549,-0.244,0.726,91.558
235389,195250,21.786892,39.069862,20.93,0.099,-0.061,1.033,0.427,2.808,0.115,91.571
235497,195251,21.78684,39.069901,27.65,0.078,-0.041,1.008,-1.343,2.502,0.176,91.586
235604,195251,21.78684,39.069901,27.65,0.007,-0.057,1.001,0.549,1.221,0.298,91.618
235711,195251,21.78684,39.069901,27.65,0.026,-0.046,1.021,-0.427,-0.671,0.298,91.666
235819,195251,21.78684,39.069901,27.65,0.01,-0.058,0.967,1.099,-1.587,-0.007,91.679
235926,195251,21.78684,39.069901,27.65,0.049,-0.058,0.936,-0.244,-0.244,0.054,91.69
236040,195251,21.78684,39.069901,27.65,0.03,-0.073,1.041,-2.197,1.343,-0.068,91.682
236147,195251,21.78684,39.069901,27.65,0.012,-0.086,0.944,-2.686,1.16,0.359,91.711
236254,195251,21.78684,39.069901,27.65,-0.02,-0.082,0.963,-0.793,0.366,0.176,91.731
236362,195251,21.78684,39.069901,27.65,-0.029,-0.116,1.062,-0.977,0.183,-0.007,91.739
236469,195252,21.786781,39.069954,32.84,-0.034,-0.1,1.022,-1.587,-1.831,-0.007,91.736
236576,195252,21.786781,39.069954,32.84,-0.004,-0.056,1.064,-0.854,-2.136,-0.007,91.735
236684,195252,21.786781,39.069954,32.84,-0.003,-0.064,0.973,1.16,-1.038,0.298,91.758
236800,195252,21.786781,39.069954,32.84,-0.036,-0.05,1.007,-0.732,0.671,-0.007,91.757
236907,195252,21.786781,39.069954,32.84,0.031,-0.138,1.05,-1.282,0.183,0.115,91.764
237015,195252,21.786781,39.069954,32.84,0,-0.091,0.978,-2.014,-0.61,0.115,91.773
237122,195252,21.786781,39.069954,32.84,0.023,-0.136,0.922,1.038,-2.197,0.176,91.783
237229,195252,21.786781,39.069954,32.84,0.012,-0.062,0.983,0.244,0.183,0.115,91.8
237336,195252,21.786781,39.069954,32.84,0.002,-0.087,0.969,0.061,0.61,-0.007,91.811
237443,195253,21.786718,39.070011,33.86,0.022,-0.059,0.931,0.366,0.549,0.176,91.83
237550,195253,21.786718,39.070011,33.86,0.005,-0.106,1.061,0.061,0.244,0.054,91.845
237656,195253,21.786718,39.070011,33.86,-0.028,-0.072,0.954,0.732,-1.038,0.115,91.849
237762,195253,21.786718,39.070011,33.86,0.028,-0.041,0.968,1.404,-1.221,0.176,91.859
237869,195253,21.786718,39.070011,33.86,0.073,-0.111,0.979,-0.061,0.305,0.237,91.876
237974,195253,21.786718,39.070011,33.86,0.029,-0.157,0.948,-0.488,1.16,-0.007,91.886
238090,195253,21.786718,39.070011,33.86,-0.035,-0.065,0.989,1.282,0.61,-0.007,91.885
238197,195253,21.786718,39.070011,33.86,0,0.016,1.02,-0.916,-1.282,-0.312,91.863
238303,195253,21.786718,39.070011,33.86,-0.054,-0.066,0.909,1.526,-4.517,-0.068,91.845
238410,195254,21.786652,39.070072,35.41,0.028,-0.065,0.917,-1.038,-2.502,0.115,91.861
238518,195254,21.786652,39.070072,35.41,0.003,-0.121,0.987,-1.648,1.587,-0.129,91.842
238624,195254,21.786652,39.070072,35.41,0.014,-0.074,0.901,1.221,1.221,-0.251,91.828
238731,195254,21.786652,39.070072,35.41,0.022,-0.048,0.883,-0.061,-0.427,-0.312,91.79
238847,195254,21.786652,39.070072,35.41,0.035,-0.118,0.97,-0.244,1.526,-0.068,91.782
238953,195254,21.786652,39.070072,35.41,0.021,-0.011,1.057,0.793,1.221,0.115,91.8
239059,195254,21.786652,39.070072,35.41,0.054,-0.049,1.042,0.122,-1.282,-0.434,91.768
239165,195254,21.786652,39.070072,35.41,0.055,-0.097,0.97,1.526,-0.732,-0.007,91.753
239271,195254,21.786652,39.070072,35.41,-0.009,-0.122,0.989,0.793,-1.648,-0.129,91.745
239379,195254,21.786652,39.070072,35.41,0.043,-0.052,0.978,1.892,-2.258,-0.129,91.73
239492,195255,21.786581,39.070137,38.52,0.058,-0.078,1.006,-1.709,-0.305,-0.129,91.715
239599,195255,21.786581,39.070137,38.52,0.016,-0.064,0.994,1.343,-0.122,-0.007,91.706
239707,195255,21.786581,39.070137,38.52,0.004,-0.069,0.918,0.305,-0.122,-0.251,91.69
239814,195255,21.786581,39.070137,38.52,-0.037,-0.02,0.959,1.465,0.183,-0.373,91.658
239921,195255,21.786581,39.070137,38.52,-0.008,-0.096,0.962,1.343,0.732,-0.19,91.631
240029,195255,21.786581,39.070137,38.52,-0.024,-0.042,0.899,0.793,1.282,-0.068,91.634
240142,195255,21.786581,39.070137,38.52,-0.014,-0.07,0.995,0.244,0.671,-0.312,91.599
240249,195255,21.786581,39.070137,38.52,-0.039,-0.076,0.965,0.061,-2.014,-0.251,91.575
240357,195255,21.786581,39.070137,38.52,0.068,-0.08,1.038,-0.549,-0.671,-0.251,91.543
240464,195256,21.786503,39.070206,42.18,0.017,-0.077,1.064,-0.183,2.38,-0.129,91.512
240572,195256,21.786503,39.070206,42.18,-0.014,-0.017,1.018,-1.282,-0.366,-0.312,91.478
240679,195256,21.786503,39.070206,42.18,-0.002,-0.064,1.039,0.183,-3.235,-0.129,91.458
240816,195256,21.786503,39.070206,42.18,0.032,-0.073,1.135,-2.014,-1.16,-0.434,91.424
240914,195256,21.786503,39.070206,42.18,0.007,-0.048,0.95,-1.465,-1.526,-0.373,91.394
241021,195256,21.786503,39.070206,42.18,0.047,-0.084,0.953,-2.075,-0.305,-0.129,91.357
241128,195256,21.786503,39.070206,42.18,0.009,-0.119,0.896,-1.648,0.61,-0.373,91.332
241236,195256,21.786503,39.070206,42.18,0.013,-0.069,1.011,0.305,1.465,-0.251,91.301
241343,195256,21.786503,39.070206,42.18,0.045,-0.124,0.98,-1.282,-0.122,-0.251,91.258
241456,195257,21.786419,39.070282,44.22,-0.004,-0.084,1.031,-0.854,-1.099,-0.129,91.244
241564,195257,21.786419,39.070282,44.22,-0.008,-0.057,1.089,-0.488,-1.587,-0.251,91.213
241671,195257,21.786419,39.070282,44.22,0.046,-0.083,0.997,-1.16,-1.282,-0.312,91.192
241779,195257,21.786419,39.070282,44.22,0.039,-0.061,1.014,-3.174,1.587,-0.19,91.162
241886,195257,21.786419,39.070282,44.22,0.017,-0.074,0.962,-1.526,0.305,-0.251,91.142
241993,195257,21.786419,39.070282,44.22,0.052,-0.097,0.892,-0.488,0.122,-0.373,91.115
242101,195257,21.786419,39.070282,44.22,0.026,-0.102,0.9,-2.258,0.427,-0.312,91.09
242216,195257,21.786419,39.070282,44.22,-0.017,-0.133,1.028,0.366,-0.671,-0.129,91.075
242323,195257,21.786419,39.070282,44.22,0.017,0.014,0.96,1.953,-2.014,-0.251,91.066
242431,195258,21.786331,39.070362,47.2,0.076,-0.049,1.039,-0.977,1.404,0.115,91.045
242538,195258,21.786331,39.070362,47.2,0.013,-0.083,0.977,-0.427,2.869,0.237,91.047
242644,195258,21.786331,39.070362,47.2,-0.041,-0.062,1.098,-1.038,-0.427,-0.19,91.036
242751,195258,21.786331,39.070362,47.2,-0.01,-0.074,1.108,-0.671,-2.625,0.115,91.024
242867,195258,21.786331,39.070362,47.2,0.048,-0.069,1.015,-0.122,-2.258,0.482,91.08
242975,195258,21.786331,39.070362,47.2,0.051,-0.083,1.007,0.732,-0.488,0.665,91.157
243083,195258,21.786331,39.070362,47.2,0.029,-0.092,0.951,-0.366,1.038,0.482,91.216
243190,195258,21.786331,39.070362,47.2,0.012,-0.009,0.997,-0.122,0.732,0.237,91.253
243298,195258,21.786331,39.070362,47.2,0.073,-0.043,1.058,-1.343,1.709,0.237,91.276
243406,195258,21.786331,39.070362,47.2,-0.018,-0.022,0.982,-1.587,1.099,-0.129,91.284
243519,195259,21.786238,39.070446,49.74,-0.004,-0.112,0.96,-1.221,-1.282,-0.251,91.256
243627,195259,21.786238,39.070446,49.74,0.007,-0.049,1.07,-3.296,-1.343,-0.251,91.24
243734,195259,21.786238,39.070446,49.74,-0.022,-0.097,1.096,0.122,-1.16,-0.129,91.214
243843,195259,21.786238,39.070446,49.74,0.002,-0.085,1.004,0.671,-1.099,-0.068,91.209
243951,195259,21.786238,39.070446,49.74,-0.026,-0.088,1.008,0.549,-0.61,-0.19,91.197
244058,195259,21.786238,39.070446,49.74,-0.022,-0.062,0.938,0.732,0.671,-0.312,91.177
244164,195259,21.786238,39.070446,49.74,-0.02,-0.1,1.079,-1.648,0.854,-0.19,91.173
244283,195259,21.786238,39.070446,49.74,-0.049,-0.041,1.005,0.305,-0.549,-0.068,91.165
244390,195259,21.786238,39.070446,49.74,0.03,-0.079,0.925,-0.671,-0.549,-0.129,91.168
244498,195300,21.786139,39.070534,52.18,-0.033,-0.107,0.935,2.686,0.854,-0.129,91.17
244605,195300,21.786139,39.070534,52.18,-0.014,-0.124,0.91,2.747,-0.671,-0.251,91.147
244713,195300,21.786139,39.070534,52.18,0.027,-0.1,0.908,3.235,-0.61,0.054,91.146
244820,195300,21.786139,39.070534,52.18,-0.005,-0.034,0.996,0.305,0.366,-0.068,91.13
244933,195300,21.786139,39.070534,52.18,0.002,-0.056,1.073,2.014,-2.258,-0.129,91.115
245040,195300,21.786139,39.070534,52.18,0.058,-0.055,1.036,-1.16,-0.488,-0.19,91.101
245148,195300,21.786139,39.070534,52.18,-0.028,-0.04,1.07,-1.526,1.709,-0.312,91.062
245255,195300,21.786139,39.070534,52.18,0.131,-0.117,1.074,1.587,2.258,-0.129,91.017
245363,195300,21.786139,39.070534,52.18,-0.018,-0.099,1.104,-1.648,-1.099,-0.373,90.993
245471,195301,21.786036,39.070625,54.77,-0.064,-0.077,1.052,-2.014,-1.709,-0.129,90.977
245587,195301,21.786036,39.070625,54.77,0.024,-0.086,1.063,-1.587,-0.366,-0.556,90.913
245694,195301,21.786036,39.070625,54.77,-0.001,-0.052,0.934,-0.183,2.747,-0.373,90.866
245802,195301,21.786036,39.070625,54.77,0.011,-0.107,0.938,-1.099,0.305,-0.434,90.813
245909,195301,21.786036,39.070625,54.77,0.044,-0.058,0.983,-1.038,-0.916,-0.434,90.766
246017,195301,21.786036,39.070625,54.77,-0.01,-0.057,0.963,-2.075,-0.061,-0.373,90.725
246124,195301,21.786036,39.070625,54.77,-0.029,-0.06,1.018,-1.282,-1.648,-0.495,90.68
246231,195301,21.786036,39.070625,54.77,0.042,-0.079,1.101,-0.549,-0.427,-0.8,90.603
246349,195301,21.786036,39.070625,54.77,-0.019,-0.084,1.045,-1.648,2.625,-0.678,90.523
246456,195302,21.785929,39.070721,56.4,-0.079,-0.161,1.048,-2.136,1.465,-1.411,90.411
246563,195302,21.785929,39.070721,56.4,-0.028,-0.089,0.936,-3.296,-1.831,-1.227,90.268
246671,195302,21.785929,39.070721,56.4,-0.021,-0.132,1.086,-2.014,0.244,-0.922,90.147
246778,195302,21.785929,39.070721,56.4,0.002,-0.156,0.811,2.747,-0.305,-1.166,90.058
246885,195302,21.785929,39.070721,56.4,-0.091,-0.059,0.938,0.061,1.648,-1.044,89.965
246998,195302,21.785929,39.070721,56.4,-0.024,-0.181,0.93,-0.793,0.061,-0.495,89.909
247105,195302,21.785929,39.070721,56.4,-0.1,-0.068,1.023,2.869,-1.77,-0.373,89.872
247213,195302,21.785929,39.070721,56.4,0.04,0.046,1.086,-2.136,-3.357,-0.556,89.829
247320,195302,21.785929,39.070721,56.4,0.036,-0.122,1.049,-0.122,-1.404,-0.312,89.792
247428,195302,21.785929,39.070721,56.4,-0.057,-0.009,0.855,2.38,0.549,-0.678,89.739
247536,195303,21.785816,39.07082,58.27,0.214,-0.092,0.945,-2.625,1.038,0.176,89.722
247652,195303,21.785816,39.07082,58.27,-0.095,-0.101,1.151,-0.183,-0.488,-0.434,89.671
247759,195303,21.785816,39.07082,58.27,0.015,-0.004,1.125,-1.953,-0.061,-0.373,89.637
247867,195303,21.785816,39.07082,58.27,0.061,-0.042,1.135,0.061,-0.366,-0.19,89.601
247974,195303,21.785816,39.07082,58.27,-0.091,-0.076,1.047,-2.197,-1.77,-0.434,89.557
248081,195303,21.785816,39.07082,58.27,0.091,-0.259,0.769,-4.211,-2.38,0.298,89.578
248189,195303,21.785816,39.07082,58.27,-0.052,-0.114,0.817,1.526,-1.831,0.237,89.598
248296,195303,21.785816,39.07082,58.27,0.021,-0.029,0.977,0.244,-0.854,0.298,89.626
248409,195303,21.785816,39.07082,58.27,-0.009,-0.062,0.879,-0.122,-0.977,0.115,89.639
248516,195304,21.785702,39.070915,57.41,-0.007,-0.14,0.896,2.136,-1.465,0.115,89.627
248623,195304,21.785702,39.070915,57.41,-0.044,0.002,0.923,4.822,0.916,0.115,89.644
248731,195304,21.785702,39.070915,57.41,-0.012,-0.048,1.038,-2.441,-0.61,0.176,89.657
248838,195304,21.785702,39.070915,57.41,-0.11,-0.077,0.828,2.869,-3.357,-0.129,89.661
248945,195304,21.785702,39.070915,57.41,-0.001,-0.12,1.046,-5.066,-1.526,-0.251,89.647
249062,195304,21.785702,39.070915,57.41,-0.197,-0.016,1.03,-0.061,-2.38,-0.312,89.61
249169,195304,21.785702,39.070915,57.41,0.134,-0.049,0.987,-4.333,-1.953,-0.617,89.557
249276,195304,21.785702,39.070915,57.41,-0.013,-0.042,1.04,0,3.174,-0.312,89.52
249384,195304,21.785702,39.070915,57.41,-0.085,-0.073,0.979,0.671,-0.854,-0.251,89.48
249491,195304,21.785702,39.070915,57.41,-0.052,-0.062,1.048,0.183,-1.099,-0.373,89.456
249599,195305,21.785587,39.071014,58.53,-0.01,-0.079,1.129,-0.488,-0.549,-0.495,89.41
249713,195305,21.785587,39.071014,58.53,-0.022,-0.079,0.916,0.488,-0.977,-0.312,89.375
249820,195305,21.785587,39.071014,58.53,-0.028,-0.114,1.042,-2.502,-0.488,-0.434,89.331
249928,195305,21.785587,39.071014,58.53,-0.064,-0.059,0.923,-3.235,-1.038,-0.373,89.3
250035,195305,21.785587,39.071014,58.53,-0.034,-0.075,1.072,-2.808,1.038,-0.434,89.249
250142,195305,21.785587,39.071014,58.53,-0.043,-0.106,1.056,-2.38,-1.343,-0.312,89.213
250250,195305,21.785587,39.071014,58.53,-0.001,-0.097,0.993,-2.38,0.305,-0.312,89.187
250357,195305,21.785587,39.071014,58.53,-0.006,-0.132,0.998,-2.258,-0.061,-0.129,89.159
250468,195305,21.785587,39.071014,58.53,-0.034,-0.089,1.04,-1.953,-0.427,-0.068,89.152
250576,195306,21.785469,39.071114,59.57,-0.006,-0.083,1.054,0.793,-1.038,-0.007,89.136
250683,195306,21.785469,39.071114,59.57,-0.082,-0.104,0.955,0.122,1.038,-0.068,89.117
250791,195306,21.785469,39.071114,59.57,-0.06,-0.088,0.974,1.282,0,0.42,89.129
250897,195306,21.785469,39.071114,59.57,-0.019,-0.06,1.084,0.366,1.038,0.726,89.183
251004,195306,21.785469,39.071114,59.57,-0.071,-0.064,0.959,1.038,-0.854,0.482,89.252
251119,195306,21.785469,39.071114,59.57,-0.051,-0.07,1.062,-0.122,-1.709,0.482,89.308
251227,195306,21.785469,39.071114,59.57,-0.039,-0.106,1.075,-2.014,-1.343,0.604,89.357
251334,195306,21.785469,39.071114,59.57,-0.008,-0.077,0.996,-1.099,-1.953,0.298,89.398
251442,195306,21.785469,39.071114,59.57,-0.083,-0.045,1.034,-1.77,0.122,0.176,89.426
251549,195307,21.785351,39.071213,61.32,0.001,-0.129,0.96,-3.601,0.183,0.176,89.427
251657,195307,21.785351,39.071213,61.32,-0.123,-0.082,0.857,-0.671,1.221,-0.373,89.405
251764,195307,21.785351,39.071213,61.32,-0.077,-0.117,0.924,0.488,0.671,-0.251,89.368
251876,195307,21.785351,39.071213,61.32,-0.031,-0.095,1.022,-1.831,-1.099,-0.312,89.334
251983,195307,21.785351,39.071213,61.32,-0.053,-0.19,0.939,0.183,0.61,-0.068,89.331
252091,195307,21.785351,39.071213,61.32,-0.082,-0.114,0.966,2.441,-0.61,-0.19,89.332
252197,195307,21.785351,39.071213,61.32,-0.052,-0.085,1.026,1.77,-0.977,0.054,89.322
252305,195307,21.785351,39.071213,61.32,0.071,-0.116,0.884,2.502,-1.709,0.115,89.336
252413,195307,21.785351,39.071213,61.32,-0.09,-0.024,0.917,0.427,-1.221,-0.19,89.348
252525,195308,21.785229,39.071316,61.25,-0.021,-0.042,0.904,0.183,-2.441,0.359,89.389
252633,195308,21.785229,39.071316,61.25,-0.04,-0.081,0.939,-2.991,-0.122,0.237,89.426
252740,195308,21.785229,39.071316,61.25,-0.066,-0.112,0.92,-1.404,2.136,0.115,89.448
252847,195308,21.785229,39.071316,61.25,-0.045,-0.144,1.011,-2.808,0.427,0.298,89.468
252955,195308,21.785229,39.071316,61.25,-0.015,-0.083,1.068,0.732,0.366,0.359,89.501
253062,195308,21.785229,39.071316,61.25,-0.029,-0.085,0.983,-1.526,-0.488,0.054,89.525
253177,195308,21.785229,39.071316,61.25,-0.009,-0.077,1.032,-0.427,1.282,-0.007,89.524
253285,195308,21.785229,39.071316,61.25,-0.038,-0.074,1.039,0.61,1.038,-0.007,89.518
253392,195308,21.785229,39.071316,61.25,-0.059,-0.095,1.079,2.38,-2.258,0.054,89.525
253500,195309,21.785107,39.071419,62.53,-0.041,-0.058,1.124,1.709,-1.831,-0.007,89.536
253607,195309,21.785107,39.071419,62.53,-0.018,-0.084,0.988,1.282,-1.343,-0.007,89.546
253714,195309,21.785107,39.071419,62.53,-0.105,-0.044,0.821,0.732,-2.014,-0.19,89.537
253822,195309,21.785107,39.071419,62.53,-0.042,-0.056,0.929,-0.854,0,-0.068,89.512
253937,195309,21.785107,39.071419,62.53,-0.035,-0.097,0.91,-0.977,2.686,-0.129,89.497
254044,195309,21.785107,39.071419,62.53,-0.077,-0.136,0.93,-0.244,0.732,-0.19,89.47
254152,195309,21.785107,39.071419,62.53,-0.018,-0.075,0.918,1.16,-0.854,-0.068,89.459
254259,195309,21.785107,39.071419,62.53,-0.062,-0.062,0.948,-0.854,0.366,-0.312,89.439
254366,195309,21.785107,39.071419,62.53,-0.078,-0.021,0.906,-1.77,0.61,-0.373,89.423
254475,195309,21.785107,39.071419,62.53,-0.03,-0.083,1.041,-2.258,0.977,-0.19,89.399
254588,195310,21.784983,39.071526,63.09,-0.074,-0.035,1.078,-0.549,0.488,-0.251,89.37
254695,195310,21.784983,39.071526,63.09,-0.032,-0.083,0.952,0.244,0.183,-0.068,89.347
254803,195310,21.784983,39.071526,63.09,-0.139,-0.098,1.004,-0.732,-0.793,-0.007,89.345
254910,195310,21.784983,39.071526,63.09,-0.064,-0.054,1.023,1.526,-1.77,0.115,89.345
255018,195310,21.784983,39.071526,63.09,-0.118,-0.08,0.92,0.916,-1.587,-0.007,89.34
255125,195310,21.784983,39.071526,63.09,-0.14,-0.021,1.008,1.526,-0.61,0.054,89.355
255241,195310,21.784983,39.071526,63.09,-0.023,-0.128,0.977,-2.747,-0.427,0.054,89.361
255349,195310,21.784983,39.071526,63.09,-0.093,-0.137,0.94,-1.587,0.488,-0.007,89.374
255456,195311,21.784859,39.071629,62.93,-0.114,-0.077,0.867,-1.221,1.709,0.115,89.374
255563,195311,21.784859,39.071629,62.93,-0.073,-0.089,0.957,-3.601,0.732,0.054,89.379
255671,195311,21.784859,39.071629,62.93,-0.113,-0.138,0.907,-0.61,0.244,0.054,89.384
255778,195311,21.784859,39.071629,62.93,-0.09,-0.101,1.054,-1.404,-0.549,0.115,89.384
255885,195311,21.784859,39.071629,62.93,-0.129,-0.126,1.009,-0.305,-0.671,0.298,89.414
256002,195311,21.784859,39.071629,62.93,-0.055,-0.153,0.977,2.258,-0.977,0.298,89.449
256109,195311,21.784859,39.071629,62.93,-0.074,-0.081,0.979,-0.793,2.441,-0.007,89.468
256217,195311,21.784859,39.071629,62.93,-0.113,-0.131,0.923,-0.488,-0.244,-0.19,89.472
256324,195311,21.784859,39.071629,62.93,-0.073,-0.062,1.015,1.831,-1.282,-0.129,89.457
256431,195311,21.784859,39.071629,62.93,-0.075,-0.028,1.044,-1.038,-0.244,-0.068,89.449
256539,195312,21.784737,39.071735,62.06,-0.023,-0.092,1.219,-1.343,0.183,0.115,89.423
256655,195312,21.784737,39.071735,62.06,-0.07,-0.107,0.944,-1.16,-1.77,-0.251,89.394
256762,195312,21.784737,39.071735,62.06,-0.05,-0.095,1.015,-3.418,1.648,-0.19,89.367
256870,195312,21.784737,39.071735,62.06,-0.124,-0.129,0.946,-1.709,0.366,-0.251,89.336
256977,195312,21.784737,39.071735,62.06,-0.144,-0.142,0.914,-1.282,-0.244,-0.312,89.317
257084,195312,21.784737,39.071735,62.06,-0.17,-0.079,0.979,-0.61,-0.854,-0.007,89.312
257192,195312,21.784737,39.071735,62.06,-0.141,-0.106,0.989,-1.221,0.793,-0.251,89.296
257306,195312,21.784737,39.071735,62.06,-0.172,-0.156,0.952,-1.404,1.892,-0.068,89.288
257414,195312,21.784737,39.071735,62.06,-0.161,-0.103,0.994,0.244,-0.305,-0.129,89.271
257521,195313,21.784616,39.071835,60.17,-0.154,-0.169,0.914,0.793,-0.671,-0.007,89.26
257628,195313,21.784616,39.071835,60.17,-0.116,-0.108,0.881,1.953,-0.366,0.054,89.266
257736,195313,21.784616,39.071835,60.17,-0.108,-0.121,0.944,0.671,0.061,0.115,89.254
257843,195313,21.784616,39.071835,60.17,-0.126,-0.086,0.918,0.488,-1.77,-0.068,89.251
257950,195313,21.784616,39.071835,60.17,-0.136,-0.038,0.945,0.671,-0.122,-0.19,89.244
258065,195313,21.784616,39.071835,60.17,-0.141,-0.05,1.026,0,-1.221,-0.312,89.208
258172,195313,21.784616,39.071835,60.17,-0.087,-0.068,1.13,-2.93,-1.16,-0.251,89.19
258279,195313,21.784616,39.071835,60.17,-0.051,-0.1,1.057,-2.747,0.122,-0.129,89.168
258387,195313,21.784616,39.071835,60.17,-0.123,-0.028,1.05,-2.197,0.793,-0.129,89.156
258494,195314,21.7845,39.071934,58.23,-0.107,-0.074,0.908,1.404,-1.404,-0.068,89.15
258602,195314,21.7845,39.071934,58.23,-0.078,-0.09,0.919,-2.686,-1.343,-0.19,89.144
258715,195314,21.7845,39.071934,58.23,-0.059,-0.098,1.004,1.038,0.366,0.237,89.17
258822,195314,21.7845,39.071934,58.23,-0.081,-0.112,1.038,0.671,-1.038,-0.19,89.155
258931,195314,21.7845,39.071934,58.23,-0.069,-0.104,0.974,2.441,-1.648,0.176,89.161
259038,195314,21.7845,39.071934,58.23,-0.017,-0.13,1.201,-0.671,0.793,0.115,89.169
259146,195314,21.7845,39.071934,58.23,-0.086,-0.129,1.043,1.038,0.671,-0.007,89.162
259255,195314,21.7845,39.071934,58.23,-0.079,-0.067,0.961,1.77,1.16,-0.19,89.136
259365,195314,21.7845,39.071934,58.23,-0.029,-0.07,0.928,1.038,0.183,-0.19,89.115
259473,195315,21.784388,39.072029,55.42,-0.084,-0.092,0.982,-0.671,0.488,-0.373,89.092
259582,195315,21.784388,39.072029,55.42,-0.098,-0.107,1.13,-0.366,-1.16,-0.251,89.066
259690,195315,21.784388,39.072029,55.42,-0.037,-0.095,0.953,-0.427,0.549,-0.312,89.047
259797,195315,21.784388,39.072029,55.42,-0.091,-0.117,0.998,-2.136,1.404,-0.312,89.017
259905,195315,21.784388,39.072029,55.42,-0.066,-0.106,0.999,-0.732,-0.183,-0.068,88.996
260013,195315,21.784388,39.072029,55.42,-0.065,-0.024,0.964,0.183,-1.343,-0.007,88.987
260135,195315,21.784388,39.072029,55.42,-0.02,-0.04,0.987,-0.854,0.122,0.054,88.994
260243,195315,21.784388,39.072029,55.42,-0.062,-0.138,1.025,-1.526,-0.61,-0.19,88.975
260351,195315,21.784388,39.072029,55.42,-0.131,-0.078,1.06,-1.709,-0.244,-0.129,88.985
260460,195316,21.784277,39.072121,55.48,-0.066,-0.091,1.08,-0.427,-0.854,0.054,88.988
260566,195316,21.784277,39.072121,55.48,-0.055,-0.085,1.01,-0.366,-0.183,0.176,89.015
260674,195316,21.784277,39.072121,55.48,-0.066,-0.078,0.978,0.427,-0.183,0.176,89.029
260792,195316,21.784277,39.072121,55.48,-0.136,-0.136,0.889,-2.502,-1.892,0.176,89.05
260899,195316,21.784277,39.072121,55.48,-0.105,-0.108,0.967,0.305,-2.38,0.359,89.076
261007,195316,21.784277,39.072121,55.48,-0.031,-0.045,1.084,-0.854,0.854,0.176,89.104
261114,195316,21.784277,39.072121,55.48,-0.092,-0.095,0.952,0.366,3.54,0.115,89.13
261221,195316,21.784277,39.072121,55.48,-0.097,-0.101,0.768,-1.404,3.54,-0.129,89.144
261329,195316,21.784277,39.072121,55.48,-0.155,-0.088,0.677,-0.305,-0.427,-0.068,89.143
261443,195317,21.784168,39.072212,54.53,-0.468,-0.127,0.98,0.183,-1.038,-0.312,89.108
261550,195317,21.784168,39.072212,54.53,-0.773,-0.076,0.85,6.775,-2.502,-0.556,89.08
261658,195317,21.784168,39.072212,54.53,-0.616,-0.049,0.949,4.578,-1.77,-0.312,89.038
261765,195317,21.784168,39.072212,54.53,-0.571,-0.055,1.004,3.54,-0.122,-0.312,89.012
261872,195317,21.784168,39.072212,54.53,-0.438,-0.039,0.955,2.747,-1.831,-0.617,88.979
261980,195317,21.784168,39.072212,54.53,-0.326,-0.12,1.012,0.732,-1.16,-0.251,88.951
262087,195317,21.784168,39.072212,54.53,-0.325,-0.123,1.068,-1.221,-0.793,-0.251,88.92
262202,195317,21.784168,39.072212,54.53,-0.33,-0.111,0.969,0.488,-2.38,-0.19,88.898
262311,195317,21.784168,39.072212,54.53,-0.245,-0.085,1.055,-1.099,-0.122,-0.129,88.883
262417,195318,21.784065,39.072296,54.53,-0.357,-0.114,0.939,1.343,1.404,-0.312,88.866
262525,195318,21.784065,39.072296,51.32,-0.32,-0.074,0.88,0.977,-1.16,-0.312,88.857
262632,195318,21.784065,39.072296,51.32,-0.276,-0.075,0.996,-0.61,0.183,0.054,88.834
262740,195318,21.784065,39.072296,51.32,-0.302,-0.064,1.018,-3.357,-0.916,-0.129,88.834
262851,195318,21.784065,39.072296,51.32,-0.209,-0.101,1.003,-2.075,-2.136,-0.129,88.82
262958,195318,21.784065,39.072296,51.32,-0.266,-0.081,0.931,-0.61,-0.183,-0.007,88.812
263065,195318,21.784065,39.072296,51.32,-0.25,-0.162,0.929,0.366,3.113,-0.19,88.804
263173,195318,21.784065,39.072296,51.32,-0.288,-0.108,0.913,0.305,-0.244,-0.129,88.794
263280,195318,21.784065,39.072296,51.32,-0.229,-0.13,0.973,2.258,-2.441,0.115,88.787
263388,195318,21.784065,39.072296,51.32,-0.196,-0.122,0.923,-0.61,-2.197,0.176,88.799
263498,195319,21.783968,39.072376,46.73,-0.248,-0.07,0.999,-0.671,-0.427,-0.129,88.795
263605,195319,21.783968,39.072376,46.73,-0.209,-0.053,0.961,0.122,0.305,-0.129,88.793
263710,195319,21.783968,39.072376,46.73,-0.212,-0.07,0.907,0.183,0.61,-0.129,88.774
263806,195319,21.783968,39.072376,46.73,-0.168,-0.093,0.984,-1.282,1.526,0.054,88.761
263912,195319,21.783968,39.072376,46.73,-0.206,-0.08,1.047,-0.488,-0.793,-0.007,88.751
264017,195319,21.783968,39.072376,46.73,-0.248,-0.132,0.959,0.061,0.671,-0.434,88.705
264124,195319,21.783968,39.072376,46.73,-0.196,-0.057,0.99,2.686,-2.686,0.298,88.693
264230,195319,21.783968,39.072376,46.73,-0.334,-0.087,1.009,-0.305,0.977,-0.129,88.66
264337,195319,21.783968,39.072376,46.73,-0.217,-0.083,0.828,0.854,0,-0.19,88.649
264443,195319,21.783968,39.072376,46.73,-0.089,-0.057,0.946,-4.395,3.113,-0.068,88.642
264550,195320,21.783894,39.072441,31.77,-0.017,-0.176,1.208,-3.174,3.174,0.298,88.636
264665,195320,21.783894,39.072441,31.77,-0.089,-0.118,0.998,-0.61,-2.502,-0.068,88.628
264771,195320,21.783894,39.072441,31.77,-0.243,-0.078,0.823,2.991,-4.272,-0.007,88.638
264879,195320,21.783894,39.072441,31.77,-0.144,-0.075,1.034,0.61,-0.305,-0.312,88.598
264985,195320,21.783894,39.072441,31.77,-0.207,-0.119,0.972,0.732,0.305,-0.007,88.601
265091,195320,21.783894,39.072441,31.77,-0.194,-0.094,1.046,-0.793,-0.61,-0.312,88.581
265199,195320,21.783894,39.072441,31.77,-0.179,-0.094,0.955,-0.305,-1.648,-0.129,88.565
265317,195320,21.783894,39.072441,31.77,-0.17,-0.087,1.058,-0.244,0.854,-0.19,88.542
265424,195320,21.783894,39.072441,31.77,-0.236,-0.101,0.948,0.549,-1.099,-0.129,88.531
265532,195320,21.783894,39.072441,31.77,-0.243,-0.088,0.931,-0.366,0.549,-0.373,88.506
265640,195320,21.783894,39.072441,31.77,-0.217,-0.114,0.986,-0.305,0.061,0.054,88.48
265748,195321,21.783833,39.072491,29.17,-0.232,-0.126,0.92,0,0.305,-0.373,88.459
265855,195321,21.783833,39.072491,29.17,-0.32,-0.093,0.975,-0.916,0.671,-0.19,88.438
265962,195321,21.783833,39.072491,29.17,-0.354,-0.133,0.92,0.427,-0.488,-0.129,88.42
266080,195321,21.783833,39.072491,29.17,-0.416,-0.093,0.984,-0.061,0.122,-0.373,88.376
266187,195321,21.783833,39.072491,29.17,-0.349,-0.109,0.936,1.038,-0.488,-0.068,88.367
266294,195321,21.783833,39.072491,29.17,-0.373,-0.095,0.939,0.549,-0.427,-0.373,88.349
266402,195321,21.783833,39.072491,29.17,-0.36,-0.073,0.983,-0.916,-0.549,-0.251,88.312
266509,195321,21.783833,39.072491,29.17,-0.358,-0.133,0.974,-0.977,-0.183,-0.007,88.31
266617,195321,21.783833,39.072491,29.17,-0.355,-0.092,0.945,0.61,-0.122,-0.251,88.298
266734,195322,21.783781,39.072533,24.24,-0.417,-0.069,0.906,0.854,-0.854,-0.312,88.261
266841,195322,21.783781,39.072533,24.24,-0.393,-0.117,1.007,-1.099,-0.244,0.054,88.274
266948,195322,21.783781,39.072533,24.24,-0.405,-0.119,0.945,0.122,-0.244,-0.19,88.267
267056,195322,21.783781,39.072533,24.24,-0.42,-0.113,1.007,-1.282,-0.305,-0.373,88.238
267163,195322,21.783781,39.072533,24.24,-0.456,-0.111,0.921,0.244,0.427,-0.007,88.214
267270,195322,21.783781,39.072533,24.24,-0.415,-0.126,0.959,-0.488,-0.305,0.237,88.23
267378,195322,21.783781,39.072533,24.24,-0.406,-0.139,1.015,-0.488,-0.427,0.054,88.233
267494,195322,21.783781,39.072533,24.24,-0.407,-0.118,1.082,-1.404,-6.47,-0.129,88.218
267602,195323,21.783745,39.072563,14.32,-0.222,-0.071,0.92,0.488,-6.714,-0.129,88.199
267709,195323,21.783745,39.072563,14.32,-0.162,-0.108,0.91,-0.977,-2.869,0.176,88.205
267816,195323,21.783745,39.072563,14.32,-0.109,-0.086,0.918,0.061,-0.977,-0.19,88.206
267924,195323,21.783745,39.072563,14.32,-0.099,-0.09,0.976,0.427,-0.671,0.054,88.185
268031,195323,21.783745,39.072563,14.32,-0.065,-0.083,1.007,0.305,-1.099,-0.007,88.195
268144,195323,21.783745,39.072563,14.32,-0.043,-0.066,1.008,-0.122,-1.221,-0.129,88.18
268252,195323,21.783745,39.072563,14.32,-0.025,-0.079,1.008,-0.854,-0.488,0.115,88.178
268359,195323,21.783745,39.072563,14.32,-0.018,-0.091,1.002,-0.183,-0.916,0.115,88.195
268466,195323,21.783745,39.072563,14.32,-0.006,-0.083,0.994,-0.488,-0.854,-0.068,88.184
268574,195324,21.78373,39.072575,1.35,-0.005,-0.07,0.989,-0.122,-0.488,0.054,88.177
268681,195324,21.78373,39.072575,1.35,0.005,-0.077,0.972,0.183,-0.122,0.115,88.188
268798,195324,21.78373,39.072575,1.35,-0.005,-0.076,0.973,0.244,0,-0.19,88.166
268905,195324,21.78373,39.072575,1.35,0.012,-0.063,0.993,-0.427,-0.244,-0.068,88.15
269012,195324,21.78373,39.072575,1.35,0.01,-0.07,0.983,-1.16,0,0.115,88.139
269120,195324,21.78373,39.072575,1.35,-0.004,-0.078,0.969,-0.793,-0.427,-0.068,88.132
269227,195324,21.78373,39.072575,1.35,-0.031,-0.098,0.995,-1.16,2.502,0.176,88.134
269334,195324,21.78373,39.072575,1.35,-0.032,-0.071,0.978,-0.854,5.127,-0.251,88.116
269442,195324,21.78373,39.072575,1.35,-0.044,-0.09,0.892,-0.488,3.601,0.176,88.11
269559,195325,21.783726,39.072582,3.67,-0.052,-0.066,0.971,-0.916,2.136,-0.19,88.087
269666,195325,21.783726,39.072582,3.67,-0.038,-0.085,1.01,-1.465,1.465,-0.19,88.059
269774,195325,21.783726,39.072582,3.67,-0.031,-0.095,0.962,-0.793,1.404,0.298,88.084
269881,195325,21.783726,39.072582,3.67,0.018,-0.093,0.969,0.183,2.441,0.115,88.114
269988,195325,21.783726,39.072582,3.67,0.018,-0.083,0.993,-0.305,2.38,-0.19,88.097
270120,195325,21.783726,39.072582,3.67,0.11,-0.076,0.854,-0.061,3.601,0.176,88.088
270217,195325,21.783726,39.072582,3.67,-0.054,-0.086,1.075,-0.854,3.601,0.176,88.109
270325,195325,21.783726,39.072582,3.67,-0.04,-0.094,1.051,-0.061,-0.183,-0.129,88.092
270432,195325,21.783726,39.072582,3.67,-0.03,-0.078,0.983,0.671,-2.014,0.176,88.1
270539,195326,21.783718,39.07259,5.56,0.02,-0.057,0.961,0.183,-1.648,-0.068,88.11
270647,195326,21.783718,39.07259,5.56,0.034,-0.071,0.968,-0.671,-1.16,-0.19,88.082
270748,195326,21.783718,39.07259,5.56,0.047,-0.076,1.047,-1.526,-0.854,0.054,88.088
270855,195326,21.783718,39.07259,5.56,0.054,-0.081,0.929,-0.977,-2.075,-0.007,88.093
270963,195326,21.783718,39.07259,5.56,0.072,-0.073,0.989,-0.732,-2.808,-0.312,88.065
271069,195326,21.783718,39.07259,5.56,0.102,-0.084,0.949,0,-3.601,-0.068,88.044
271175,195326,21.783718,39.07259,5.56,0.108,-0.1,0.946,0.549,-4.761,0.115,88.045
271283,195326,21.783718,39.07259,5.56,0.363,-0.056,1.145,-0.549,-6.714,-0.068,88.051
271390,195326,21.783718,39.07259,5.56,0.32,-0.091,1.106,-1.526,-0.244,0.054,88.028
271497,195327,21.783703,39.072601,9.16,0.197,-0.066,1.071,-1.892,3.235,-0.068,88.021
271605,195327,21.783703,39.072601,9.16,0.196,-0.069,0.957,0.122,0.061,-0.19,88.014
271712,195327,21.783703,39.072601,9.16,0.241,-0.077,0.989,-0.61,-0.977,-0.129,88.006
271819,195327,21.783703,39.072601,9.16,0.238,-0.062,1.042,0,-0.488,0.115,88.002
271926,195327,21.783703,39.072601,9.16,0.254,-0.1,1.01,-0.549,-0.427,-0.007,88.002
272033,195327,21.783703,39.072601,9.16,0.219,-0.065,1.008,0.183,0.061,-0.007,87.996
272141,195327,21.783703,39.072601,9.16,0.22,-0.081,1.021,0.061,0.366,-0.007,87.995
272249,195327,21.783703,39.072601,9.16,0.201,-0.057,1.001,-0.061,-0.732,0.115,87.995
272356,195327,21.783703,39.072601,9.16,0.208,-0.086,0.99,0.549,0.488,-0.007,87.991
272464,195328,21.783678,39.072624,16.51,0.186,-0.097,0.987,-0.061,0.549,-0.129,87.983
272570,195328,21.783678,39.072624,16.51,0.207,-0.052,1.049,-0.671,-0.366,-0.129,87.975
272677,195328,21.783678,39.072624,16.51,0.208,-0.083,0.984,0.061,0.244,-0.068,87.976
272785,195328,21.783678,39.072624,16.51,0.137,-0.092,1.005,-0.549,0.488,-0.068,87.961
272889,195328,21.783678,39.072624,16.51,0.095,-0.048,0.961,-0.549,0.366,0.115,87.973
272996,195328,21.783678,39.072624,16.51,0.136,-0.083,1.02,-0.854,0.671,-0.129,87.971
273104,195328,21.783678,39.072624,16.51,0.122,-0.053,1.03,-0.549,0.366,0.115,87.967
273211,195328,21.783678,39.072624,16.51,0.165,-0.067,0.98,0.427,0.732,-0.129,87.97
273319,195328,21.783678,39.072624,16.51,0.113,-0.078,1.075,-1.343,0.183,-0.251,87.948
273420,195328,21.783678,39.072624,16.51,0.142,-0.103,0.993,-0.183,-0.427,0.176,87.961
273527,195329,21.783634,39.072662,27.47,0.054,-0.028,0.967,-0.183,-0.854,-0.068,87.962
273635,195329,21.783634,39.072662,27.47,0.072,-0.085,0.965,0.183,-1.343,0.054,87.956
273742,195329,21.783634,39.072662,27.47,0.066,-0.084,0.914,0.549,-0.671,-0.007,87.96
273850,195329,21.783634,39.072662,27.47,0.094,-0.086,0.994,-0.854,-0.488,0.054,87.965
273957,195329,21.783634,39.072662,27.47,0.049,-0.051,0.99,-0.854,0.61,-0.007,87.967
274062,195329,21.783634,39.072662,27.47,0.082,-0.101,0.948,0.061,-1.038,0.115,87.979
274169,195329,21.783634,39.072662,27.47,0.055,-0.017,1.019,-0.793,0.427,0.237,88.002
274277,195329,21.783634,39.072662,27.47,0.092,-0.109,0.962,-0.671,-0.854,0.237,88.032
274384,195329,21.783634,39.072662,27.47,0.092,-0.055,0.949,-0.61,0.793,0.298,88.052
274492,195330,21.783575,39.072708,32.74,0.075,-0.068,0.939,-0.305,-1.099,0.237,88.087
274600,195330,21.783575,39.072708,32.74,0.109,-0.165,1.021,-1.282,-1.16,0.298,88.116
274707,195330,21.783575,39.072708,32.74,0.099,-0.061,0.965,0.122,-0.305,0.359,88.149
274811,195330,21.783575,39.072708,32.74,0.055,-0.08,1.033,-0.61,0.061,0.176,88.168
274920,195330,21.783575,39.072708,32.74,0.056,-0.053,1.036,0.671,1.221,0.115,88.188
275027,195330,21.783575,39.072708,32.74,0.037,-0.087,0.978,0.916,0.427,0.237,88.218
275135,195330,21.783575,39.072708,32.74,0.04,-0.066,1.011,-0.305,0.061,0.42,88.259
275242,195330,21.783575,39.072708,32.74,0.073,-0.077,0.931,0,-0.854,0.298,88.276
275349,195330,21.783575,39.072708,32.74,0.086,-0.065,0.967,-0.427,-0.488,0.42,88.303
275466,195330,21.783575,39.072708,32.74,0.047,-0.1,0.957,0.427,-0.427,0.482,88.359
275573,195331,21.783504,39.072765,37.14,0.114,-0.046,0.962,-0.305,-0.488,0.176,88.391
275680,195331,21.783504,39.072765,37.14,0.1,-0.049,1.036,-1.648,0.061,0.176,88.412
275788,195331,21.783504,39.072765,37.14,0.153,-0.072,0.961,-0.427,0.244,0.42,88.436
275895,195331,21.783504,39.072765,37.14,0.108,-0.064,1.058,0.671,1.282,0.298,88.478
276002,195331,21.783504,39.072765,37.14,0.112,-0.069,1.03,0.061,1.343,0.42,88.504
276110,195331,21.783504,39.072765,37.14,0.078,-0.107,1.107,-0.122,-0.916,0.42,88.533
276223,195331,21.783504,39.072765,37.14,0.146,-0.067,0.988,1.404,-2.625,0.359,88.574
276330,195331,21.783504,39.072765,37.14,0.083,-0.044,1.012,0.549,-0.183,0.298,88.603
276438,195331,21.783504,39.072765,37.14,0.041,-0.08,1.016,0.854,-0.305,0.237,88.631
276545,195332,21.783426,39.07283,41.77,0.084,-0.056,1.096,-0.122,1.038,0.604,88.667
276653,195332,21.783426,39.07283,41.77,0.065,-0.087,0.995,-0.916,-0.305,0.176,88.709
276760,195332,21.783426,39.07283,41.77,0.125,-0.066,0.993,0.977,-1.404,0.237,88.751
276877,195332,21.783426,39.07283,41.77,0.09,-0.062,0.942,-1.099,-0.244,0.543,88.815
276985,195332,21.783426,39.07283,41.77,-0.002,-0.016,0.76,-0.427,-0.793,0.42,88.859
277092,195332,21.783426,39.07283,41.77,0.04,-0.069,1.036,-2.136,0.854,0.604,88.911
277199,195332,21.783426,39.07283,41.77,0.01,-0.071,0.986,-1.221,-0.244,0.359,88.964
277307,195332,21.783426,39.07283,41.77,0.011,-0.081,1.042,-0.732,0.244,0.237,89.002
277414,195332,21.783426,39.07283,41.77,0.009,-0.118,0.957,-1.038,-1.282,0.482,89.049
277530,195333,21.783339,39.072903,46.35,0.067,-0.08,0.878,1.404,-1.16,0.482,89.105
277638,195333,21.783339,39.072903,46.35,0.012,-0.067,0.948,1.099,0.793,0.298,89.139
277745,195333,21.783339,39.072903,46.35,0.057,-0.062,1.02,-0.305,0.183,0.359,89.161
277852,195333,21.783339,39.072903,46.35,0.066,-0.083,1.072,-2.93,-0.488,0.298,89.179
277960,195333,21.783339,39.072903,46.35,0.044,-0.097,0.931,-0.732,-1.099,0.237,89.214
278067,195333,21.783339,39.072903,46.35,0.004,-0.094,0.897,-0.244,-1.343,0.115,89.234
278175,195333,21.783339,39.072903,46.35,-0.016,-0.084,1,-0.732,-1.099,0.237,89.262
278290,195333,21.783339,39.072903,46.35,0.016,-0.036,0.971,1.099,0.305,0.176,89.282
278397,195333,21.783339,39.072903,46.35,0.091,-0.133,1.016,-2.686,0.488,0.298,89.296
278505,195334,21.783245,39.072983,48.79,0.045,-0.038,0.917,0,0.366,0.359,89.332
278612,195334,21.783245,39.072983,48.79,0.025,-0.037,0.976,-0.061,-0.366,0.298,89.349
278719,195334,21.783245,39.072983,48.79,-0.016,-0.113,1.142,-2.441,-0.427,0.115,89.376
278827,195334,21.783245,39.072983,48.79,-0.019,-0.013,0.901,1.099,0.183,0.237,89.398
278943,195334,21.783245,39.072983,48.79,0.003,-0.09,1.047,-2.258,1.038,0.176,89.418
279050,195334,21.783245,39.072983,48.79,0.019,-0.039,1.001,0.732,1.404,0.298,89.447
279158,195334,21.783245,39.072983,48.79,0.001,-0.068,0.979,-0.671,0.061,0.237,89.472
279265,195334,21.783245,39.072983,48.79,0.063,-0.104,1.016,-1.526,-0.793,0.359,89.501
279372,195334,21.783245,39.072983,48.79,0.082,-0.074,0.994,-0.366,0.977,0.237,89.534
279480,195334,21.783245,39.072983,48.79,-0.044,-0.072,0.974,1.892,1.343,0.176,89.553
279600,195335,21.783148,39.073067,51.21,-0.011,-0.077,0.991,0.244,-1.404,0.176,89.574
279707,195335,21.783148,39.073067,51.21,0.022,-0.071,1.001,-0.793,-1.587,0.42,89.598
279815,195335,21.783148,39.073067,51.21,-0.003,-0.096,1.028,-1.77,-2.502,0.176,89.62
279923,195335,21.783148,39.073067,51.21,0.062,-0.096,1.023,-0.854,0.366,0.176,89.632
280031,195335,21.783148,39.073067,51.21,-0.022,-0.071,1.073,-3.54,1.099,-0.007,89.653
280137,195335,21.783148,39.073067,51.21,-0.022,-0.078,0.953,-0.549,-0.671,0.237,89.673
280245,195335,21.783148,39.073067,51.21,0.024,-0.052,0.968,-0.854,0.671,0.237,89.708
280362,195335,21.783148,39.073067,51.21,0.032,-0.096,1.09,-2.197,1.221,0.176,89.728
280470,195335,21.783148,39.073067,51.21,-0.022,-0.059,0.995,0.366,-0.061,0.176,89.762
280577,195335,21.783148,39.073067,51.21,-0.002,-0.088,0.962,1.709,-0.427,0.359,89.8
280686,195336,21.783047,39.073154,53.76,-0.007,-0.096,0.924,0.183,-1.526,0.176,89.825
280794,195336,21.783047,39.073154,53.76,-0.034,-0.029,0.945,1.709,-1.709,0.359,89.857
280901,195336,21.783047,39.073154,53.76,0.013,-0.107,1.062,0.977,-2.136,0.237,89.879
281004,195336,21.783047,39.073154,53.76,0.05,-0.052,0.928,1.465,0.183,0.237,89.903
281110,195336,21.783047,39.073154,53.76,-0.042,-0.12,1.106,0.061,0.977,0.482,89.921
281219,195336,21.783047,39.073154,53.76,-0.006,-0.043,0.989,0.366,-1.526,-0.129,89.95
281326,195336,21.783047,39.073154,53.76,0.049,-0.006,0.966,-0.732,-0.366,0.298,89.968
281433,195336,21.783047,39.073154,53.76,0.103,-0.059,1.01,-1.587,2.075,0.054,89.978
281541,195336,21.783047,39.073154,53.76,-0.049,-0.023,0.773,2.197,0.244,-0.129,89.991
281646,195336,21.783047,39.073154,53.76,0.046,-0.057,1.069,1.77,-0.244,-0.007,89.99
281753,195336,21.783047,39.073154,53.76,-0.006,-0.099,0.986,1.404,-1.526,-0.007,89.998
281861,195337,21.78294,39.073246,56.06,0.048,-0.063,0.983,0.122,-1.587,0.359,90.021
281968,195337,21.78294,39.073246,56.06,0.134,-0.095,1.026,-2.197,-0.427,0.054,90.017
282075,195337,21.78294,39.073246,56.06,0.09,-0.059,0.823,-2.991,0.854,-0.007,90.013
282183,195337,21.78294,39.073246,56.06,-0.003,-0.068,1.063,-2.197,-0.427,0.176,90.006
282290,195337,21.78294,39.073246,56.06,0.011,-0.076,1.005,0.427,0.427,0.054,90.021
282394,195337,21.78294,39.073246,56.06,-0.003,-0.054,0.92,1.404,-0.061,-0.129,90.007
282502,195337,21.78294,39.073246,56.06,0.074,-0.066,1.156,-1.465,-0.793,0.115,90.018
282609,195337,21.78294,39.073246,56.06,0.017,-0.063,1.099,-1.099,-1.038,-0.129,90.015
282717,195337,21.78294,39.073246,56.06,0.041,-0.108,1.022,-0.793,0.61,0.054,90.01
282824,195338,21.782829,39.073341,58.42,0.036,-0.081,0.96,1.16,1.221,-0.007,90.015
282931,195338,21.782829,39.073341,58.42,0.011,-0.107,1.113,-3.418,1.221,-0.007,90.014
283037,195338,21.782829,39.073341,58.42,0.013,-0.039,0.973,0.61,-0.366,0.176,90.033
283144,195338,21.782829,39.073341,58.42,-0.016,-0.088,0.957,-1.282,0,-0.251,90.029
283251,195338,21.782829,39.073341,58.42,-0.021,-0.089,1.012,-0.366,0.549,-0.373,89.985
283359,195338,21.782829,39.073341,58.42,-0.019,-0.092,1.029,-1.221,-0.183,-0.434,89.932
283466,195338,21.782829,39.073341,58.42,0,-0.103,1.042,-1.709,-0.61,-0.373,89.885
283573,195338,21.782829,39.073341,58.42,-0.035,-0.051,1.04,-1.038,0.488,-0.495,89.834
283682,195338,21.782829,39.073341,58.42,-0.031,-0.107,1.144,-1.892,0.244,-0.373,89.778
283790,195339,21.782713,39.073444,61.08,0.004,-0.108,0.983,0.183,0.244,-0.739,89.698
283898,195339,21.782713,39.073444,61.08,-0.002,-0.066,1.136,-1.709,-0.366,-0.8,89.617
284005,195339,21.782713,39.073444,61.08,0.013,-0.095,1.038,0.061,-0.244,-0.617,89.533
284113,195339,21.782713,39.073444,61.08,0.002,-0.082,0.949,-0.549,1.16,-0.8,89.464
284221,195339,21.782713,39.073444,61.08,0.058,-0.112,0.976,-0.732,-0.488,-0.617,89.386
284328,195339,21.782713,39.073444,61.08,0.008,-0.06,0.909,-0.854,0.122,-0.678,89.314
284434,195339,21.782713,39.073444,61.08,0.018,-0.116,0.939,-0.977,-0.916,-0.556,89.255
284542,195340,21.782593,39.073551,63.48,0,-0.122,0.917,-1.892,0.305,-0.678,89.2
284649,195340,21.782593,39.073551,63.48,0.012,-0.089,0.978,-1.77,-1.404,-0.739,89.122
284756,195340,21.782593,39.073551,63.48,0.015,-0.104,0.877,-1.038,-2.686,-0.556,89.05
284864,195340,21.782593,39.073551,63.48,0.048,-0.094,0.938,0.671,-0.854,-0.556,88.98
284971,195340,21.782593,39.073551,63.48,0.035,-0.117,1.018,-0.916,1.099,-0.312,88.923
285075,195340,21.782593,39.073551,63.48,0.01,-0.059,1.007,-0.61,0.244,-0.495,88.871
285183,195340,21.782593,39.073551,63.48,-0.002,-0.119,1.016,-0.427,-0.732,-0.19,88.834
285290,195340,21.782593,39.073551,63.48,0.021,-0.126,1.095,-1.221,-0.671,-0.129,88.817
285398,195340,21.782593,39.073551,63.48,-0.042,-0.065,0.994,-1.221,-0.427,-0.007,88.818
285506,195340,21.782593,39.073551,63.48,-0.051,0.003,0.974,0.122,1.587,0.054,88.832
285612,195341,21.782467,39.073658,65.22,-0.04,-0.147,1.071,-1.099,0.488,0.359,88.848
285720,195341,21.782467,39.073658,65.22,-0.027,-0.038,1.028,0.244,0.244,0.359,88.87
285823,195341,21.782467,39.073658,65.22,-0.004,-0.092,1.16,-0.732,-0.732,0.298,88.901
285930,195341,21.782467,39.073658,65.22,-0.051,-0.059,0.981,0,-0.488,0.115,88.911
286038,195341,21.782467,39.073658,65.22,-0.052,0.013,0.895,3.113,-1.16,0.115,88.927
286145,195341,21.782467,39.073658,65.22,0.043,-0.064,1.036,-1.648,-0.427,0.115,88.926
286252,195341,21.782467,39.073658,65.22,0.001,-0.088,0.948,0.183,0.549,0.115,88.939
286360,195341,21.782467,39.073658,65.22,-0.05,-0.116,0.914,-1.953,0,0.054,88.955
286476,195341,21.782467,39.073658,65.22,-0.01,-0.037,0.971,-1.343,1.221,-0.129,88.94
286583,195342,21.782337,39.073769,67.45,-0.038,-0.062,0.955,-0.122,0.305,-0.129,88.928
286691,195342,21.782337,39.073769,67.45,-0.047,-0.099,1.108,-1.404,-0.061,-0.129,88.918
286799,195342,21.782337,39.073769,67.45,-0.064,-0.02,1.06,0.244,-0.671,-0.007,88.912
286907,195342,21.782337,39.073769,67.45,-0.06,-0.087,0.93,-0.549,-1.648,-0.068,88.91
287014,195342,21.782337,39.073769,67.45,0,-0.042,0.984,-0.244,-0.244,-0.007,88.906
287131,195342,21.782337,39.073769,67.45,-0.057,-0.14,0.966,0.244,-0.793,-0.007,88.905
287239,195342,21.782337,39.073769,67.45,0.053,-0.07,0.959,2.502,-0.061,-0.007,88.915
287346,195342,21.782337,39.073769,67.45,0.041,-0.023,1.006,-0.183,1.16,0.176,88.917
287453,195342,21.782337,39.073769,67.45,-0.001,-0.025,0.854,2.38,-0.549,-0.007,88.919
287561,195343,21.782202,39.073879,68.96,-0.047,-0.042,0.928,1.16,1.404,-0.007,88.928
287668,195343,21.782202,39.073879,68.96,-0.026,-0.077,0.992,-2.441,-1.526,-0.129,88.921
287775,195343,21.782202,39.073879,68.96,-0.085,-0.093,0.943,-1.099,-1.587,-0.129,88.916
287889,195343,21.782202,39.073879,68.96,-0.068,-0.149,0.889,1.526,-1.77,-0.251,88.887
287996,195343,21.782202,39.073879,68.96,0.06,-0.111,0.985,1.526,-0.183,-0.129,88.876
288104,195343,21.782202,39.073879,68.96,0.017,-0.06,0.895,-1.038,3.845,-0.129,88.864
288212,195343,21.782202,39.073879,68.96,-0.098,-0.044,0.897,0.244,-0.061,-0.434,88.832
288320,195343,21.782202,39.073879,68.96,-0.007,-0.087,1.078,-0.305,-2.38,-0.434,88.779
288429,195343,21.782202,39.073879,68.96,-0.046,-0.114,1.106,0.183,-2.991,-0.251,88.742
288545,195344,21.782066,39.073997,70.45,-0.061,-0.118,0.984,0.366,-1.343,-0.129,88.727
288653,195344,21.782066,39.073997,70.45,0.044,-0.054,0.989,1.099,1.343,-0.19,88.717
288761,195344,21.782066,39.073997,70.45,0.047,-0.054,0.891,-0.183,0.61,-0.251,88.691
288868,195344,21.782066,39.073997,70.45,-0.018,-0.066,1.062,-2.625,-0.366,-0.19,88.676
288975,195344,21.782066,39.073997,70.45,-0.071,-0.087,1.016,-0.977,-0.61,-0.129,88.66
289084,195344,21.782066,39.073997,70.45,-0.016,-0.057,1.031,0.061,-1.648,0.054,88.655
289197,195344,21.782066,39.073997,70.45,-0.039,-0.013,0.75,3.906,-1.892,-0.007,88.654
289305,195344,21.782066,39.073997,70.45,0.057,-0.087,0.965,0.122,0.427,-0.312,88.635
289412,195344,21.782066,39.073997,70.45,0.041,-0.061,0.881,0.916,0.549,-0.068,88.619
289519,195344,21.782066,39.073997,70.45,-0.034,-0.021,0.942,-0.244,1.587,-0.251,88.598
289628,195345,21.781927,39.074116,71.9,-0.068,-0.073,0.917,0.305,-1.465,-0.373,88.565
289735,195345,21.781927,39.074116,71.9,-0.091,-0.076,0.988,0,-1.465,-0.129,88.543
289842,195345,21.781927,39.074116,71.9,0.006,-0.073,0.889,1.77,-0.427,-0.129,88.541
289957,195345,21.781927,39.074116,71.9,-0.026,-0.059,1.085,-0.183,1.221,0.054,88.547
290063,195345,21.781927,39.074116,71.9,-0.025,-0.058,0.938,1.16,0.549,0.115,88.559
290170,195345,21.781927,39.074116,71.9,-0.048,-0.124,0.848,-0.916,0.854,0.176,88.576
290278,195345,21.781927,39.074116,71.9,-0.076,-0.087,0.933,0.244,0.916,0.359,88.615
290385,195345,21.781927,39.074116,71.9,-0.119,-0.041,0.961,-0.671,-2.38,0.176,88.644
290492,195345,21.781927,39.074116,71.9,-0.1,0.004,1.04,-0.122,-2.136,-0.007,88.667
290610,195346,21.781784,39.074238,73.01,-0.076,-0.002,0.945,0.61,-2.136,-0.007,88.666
290717,195346,21.781784,39.074238,73.01,-0.066,-0.043,1.038,-1.465,-0.061,-0.007,88.68
290825,195346,21.781784,39.074238,73.01,-0.033,-0.068,1.013,-1.587,-0.061,-0.251,88.694
290932,195346,21.781784,39.074238,73.01,-0.004,-0.067,0.986,-1.038,1.16,0.054,88.699
291039,195346,21.781784,39.074238,73.01,-0.032,-0.057,0.98,-1.648,-1.038,0.237,88.702
291147,195346,21.781784,39.074238,73.01,0.038,-0.093,1.075,0,-0.916,0.42,88.72
291265,195346,21.781784,39.074238,73.01,-0.082,-0.062,1.093,1.465,1.587,0.237,88.748
291372,195346,21.781784,39.074238,73.01,-0.041,-0.028,0.98,-0.305,0.244,0.054,88.779
291480,195346,21.781784,39.074238,73.01,-0.026,-0.037,0.989,0.366,0.671,0.115,88.798
291587,195347,21.781639,39.07436,73.87,-0.078,-0.025,0.973,-1.587,2.197,0.237,88.801
291694,195347,21.781639,39.07436,73.87,-0.161,-0.04,0.979,-1.77,0,-0.068,88.816
291803,195347,21.781639,39.07436,73.87,-0.044,-0.007,0.924,-0.122,-3.601,0.115,88.819
291909,195347,21.781639,39.07436,73.87,-0.031,-0.023,0.955,1.343,-0.916,0.359,88.855
292019,195347,21.781639,39.07436,73.87,-0.184,-0.14,0.92,1.038,-0.061,0.176,88.874
292126,195347,21.781639,39.07436,73.87,-0.085,-0.08,1.034,-0.427,-0.854,-0.068,88.878
292233,195347,21.781639,39.07436,73.87,-0.022,-0.071,1.038,-2.014,-0.305,-0.129,88.882
292341,195347,21.781639,39.07436,73.87,-0.027,-0.073,1.027,-0.732,0.305,-0.129,88.88
292448,195347,21.781639,39.07436,73.87,-0.043,-0.08,0.938,-1.526,-0.122,-0.19,88.869
292555,195348,21.781494,39.074482,74.34,-0.041,-0.071,1.106,-2.014,0.732,-0.007,88.856
292660,195348,21.781494,39.074482,74.34,-0.009,-0.08,0.946,1.16,0.244,0.176,88.874
292767,195348,21.781494,39.074482,74.34,-0.051,-0.055,1.014,-1.343,0.122,-0.251,88.873
292874,195348,21.781494,39.074482,74.34,-0.03,-0.008,0.978,0.671,-0.122,-0.129,88.88
292982,195348,21.781494,39.074482,74.34,-0.052,-0.048,0.896,2.502,-1.648,0.054,88.866
293089,195348,21.781494,39.074482,74.34,-0.02,-0.103,1.104,-0.671,-0.671,0.176,88.867
293197,195348,21.781494,39.074482,74.34,-0.076,-0.059,0.894,0.61,-0.61,-0.068,88.873
293301,195348,21.781494,39.074482,74.34,-0.05,-0.093,1.047,1.343,0.122,0.054,88.879
293408,195348,21.781494,39.074482,74.34,-0.058,-0.061,0.948,-0.61,0.427,-0.251,88.875
293516,195349,21.781347,39.074608,74.85,0.016,-0.102,1.003,-0.305,1.16,0.115,88.867
293623,195349,21.781347,39.074608,74.85,-0.065,-0.047,0.984,-0.061,-0.183,-0.129,88.854
293730,195349,21.781347,39.074608,74.85,-0.084,-0.106,0.904,-2.441,0.183,-0.129,88.841
293838,195349,21.781347,39.074608,74.85,-0.083,-0.087,0.981,-0.061,-0.061,-0.129,88.834
293945,195349,21.781347,39.074608,74.85,-0.028,-0.026,0.941,0.854,-1.343,-0.129,88.823
294049,195349,21.781347,39.074608,74.85,0.034,-0.117,1.224,-4.333,0.366,0.176,88.841
294157,195349,21.781347,39.074608,74.85,-0.034,-0.062,1.005,-0.244,0.671,-0.007,88.839
294264,195349,21.781347,39.074608,74.85,-0.032,-0.099,1.011,-2.075,-0.732,-0.251,88.835
294371,195349,21.781347,39.074608,74.85,-0.039,-0.087,0.96,-1.892,1.282,-0.129,88.823
294479,195350,21.7812,39.074734,75.26,-0.006,-0.067,1.001,-2.93,-0.732,-0.068,88.82
294586,195350,21.7812,39.074734,75.26,-0.012,-0.064,0.938,-2.502,-1.892,0.115,88.811
294691,195350,21.7812,39.074734,75.26,-0.081,-0.076,1,-0.671,-0.366,-0.129,88.797
294798,195350,21.7812,39.074734,75.26,-0.037,-0.043,0.892,2.38,-1.587,-0.129,88.8
294905,195350,21.7812,39.074734,75.26,-0.021,-0.064,0.994,-0.061,-0.305,-0.129,88.793
295013,195350,21.7812,39.074734,75.26,-0.015,-0.118,1.125,-0.61,0.061,-0.007,88.786
295120,195350,21.7812,39.074734,75.26,-0.053,-0.121,0.97,-0.488,0.244,-0.129,88.775
295227,195350,21.7812,39.074734,75.26,-0.036,-0.107,1.01,-0.61,-0.305,-0.068,88.779
295335,195350,21.7812,39.074734,75.26,-0.021,-0.068,0.888,-1.282,-1.526,0.054,88.792
295440,195350,21.7812,39.074734,75.26,0.001,-0.036,1.018,-1.831,1.648,0.359,88.83
295547,195351,21.781052,39.07486,75.64,-0.046,-0.07,0.884,-0.916,-0.305,0.115,88.827
295655,195351,21.781052,39.07486,75.64,-0.058,-0.111,1.003,-2.014,0.122,-0.007,88.818
295762,195351,21.781052,39.07486,75.64,-0.049,-0.089,1.1,-1.038,-0.793,-0.129,88.821
295871,195351,21.781052,39.07486,75.64,-0.021,-0.086,0.901,-1.16,1.404,0.115,88.824
295978,195351,21.781052,39.07486,75.64,-0.029,-0.089,1.024,-0.305,0.305,0.237,88.83
296082,195351,21.781052,39.07486,75.64,-0.125,-0.107,1.07,0.061,-3.052,-0.007,88.829
296190,195351,21.781052,39.07486,75.64,-0.032,-0.085,1.087,-0.061,-2.258,0.115,88.851
296297,195351,21.781052,39.07486,75.64,0.021,-0.027,0.888,0.061,0.793,-0.007,88.87
296405,195351,21.781052,39.07486,75.64,-0.062,-0.087,0.933,-0.183,1.099,0.054,88.872
296514,195351,21.781052,39.07486,75.64,-0.073,-0.082,0.91,0.366,-1.343,0.054,88.881
296622,195352,21.780903,39.074986,75.8,-0.013,-0.117,0.958,0.488,0,-0.129,88.884
296723,195352,21.780903,39.074986,75.8,-0.143,-0.02,0.875,-0.793,-3.906,-0.434,88.84
296832,195352,21.780903,39.074986,75.8,0.086,-0.02,0.871,-0.549,-0.854,0.42,88.845
296940,195352,21.780903,39.074986,75.8,-0.069,-0.111,0.971,-1.404,1.77,0.115,88.84
297049,195352,21.780903,39.074986,75.8,-0.157,-0.13,0.901,-0.183,-0.427,0.054,88.847
297157,195352,21.780903,39.074986,75.8,-0.115,-0.028,1.014,0.916,-2.38,-0.007,88.863
297265,195352,21.780903,39.074986,75.8,-0.043,-0.058,0.945,0,0.122,0.176,88.868
297374,195352,21.780903,39.074986,75.8,-0.06,-0.094,0.94,0.305,0.61,0.298,88.878
297488,195352,21.780903,39.074986,75.8,-0.057,-0.155,0.92,0.305,1.099,0.115,88.892
297596,195352,21.780903,39.074986,75.8,-0.054,-0.048,0.893,-0.061,-0.122,-0.129,88.904
297704,195352,21.780903,39.074986,75.8,-0.073,-0.09,1.021,-0.549,-0.122,0.054,88.903
297812,195353,21.780754,39.075111,75.76,-0.114,-0.11,0.992,1.099,-1.526,0.115,88.894
297919,195353,21.780754,39.075111,75.76,-0.071,-0.158,1.03,-0.916,-1.526,0.115,88.905
298027,195353,21.780754,39.075111,75.76,-0.004,-0.069,1.032,-0.061,-0.977,0.176,88.915
298144,195353,21.780754,39.075111,75.76,-0.046,-0.047,0.989,0.427,0,0.115,88.929
298251,195353,21.780754,39.075111,75.76,-0.088,-0.061,0.94,0.671,-1.221,-0.068,88.917
298359,195353,21.780754,39.075111,75.76,-0.122,-0.085,0.946,-1.404,0.244,-0.19,88.897
298465,195353,21.780754,39.075111,75.76,-0.055,-0.066,1.017,-2.502,1.465,-0.312,88.894
298573,195353,21.780754,39.075111,75.76,-0.058,-0.13,0.994,-1.953,-0.244,-0.007,88.864
298681,195353,21.780754,39.075111,75.76,-0.056,-0.145,1.081,-1.16,-1.465,-0.007,88.852
298793,195354,21.780605,39.075237,75.56,-0.062,-0.11,1.021,-0.916,-1.221,-0.007,88.851
298901,195354,21.780605,39.075237,75.56,-0.006,-0.045,1.214,-0.854,0.61,0.054,88.857
299008,195354,21.780605,39.075237,75.56,-0.057,-0.07,1.034,-0.61,1.221,-0.19,88.847
299115,195354,21.780605,39.075237,75.56,-0.137,-0.042,1.197,-0.61,0.427,-0.19,88.826
299223,195354,21.780605,39.075237,75.56,-0.031,-0.104,1.058,-1.343,-0.427,-0.19,88.803
299330,195354,21.780605,39.075237,75.56,-0.038,-0.058,0.969,-2.197,1.465,-0.251,88.781
299437,195354,21.780605,39.075237,75.56,-0.058,-0.004,0.891,-2.38,1.099,-0.19,88.765
299548,195355,21.780457,39.075363,75.14,-0.036,-0.073,0.985,-0.916,0.916,0.115,88.778
299655,195355,21.780457,39.075363,75.14,-0.101,-0.135,0.923,-1.16,-1.099,-0.129,88.761
299763,195355,21.780457,39.075363,75.14,-0.073,-0.122,0.952,1.099,-1.099,-0.068,88.763
299870,195355,21.780457,39.075363,75.14,-0.032,-0.018,0.95,0.061,0,0.054,88.774
299978,195355,21.780457,39.075363,75.14,-0.059,-0.024,0.937,1.526,-0.061,0.054,88.773
300085,195355,21.780457,39.075363,75.14,-0.055,-0.055,0.933,1.953,-1.77,-0.007,88.762
300202,195355,21.780457,39.075363,75.14,-0.125,-0.138,0.952,-0.122,-1.16,-0.19,88.74
300309,195355,21.780457,39.075363,75.14,-0.065,-0.048,0.991,-0.488,-0.61,-0.312,88.724
300417,195355,21.780457,39.075363,75.14,-0.054,-0.035,0.854,-0.732,-0.244,-0.068,88.709
300524,195355,21.780457,39.075363,75.14,-0.064,-0.056,0.937,-0.366,-0.183,0.176,88.693
300631,195356,21.780308,39.075489,74.81,-0.047,-0.11,0.86,0.122,-0.732,-0.251,88.676
300739,195356,21.780308,39.075489,74.81,-0.023,-0.101,1.04,0.793,-0.854,-0.129,88.661
300855,195356,21.780308,39.075489,74.81,-0.119,-0.048,0.944,0.183,-1.526,-0.068,88.654
300961,195356,21.780308,39.075489,74.81,-0.072,-0.063,1.069,0.549,0.061,-0.007,88.647
301056,195356,21.780308,39.075489,74.81,-0.077,-0.138,0.912,-0.732,-1.526,0.054,88.642
301163,195356,21.780308,39.075489,74.81,-0.059,-0.122,1.011,-1.953,-0.488,-0.373,88.628
301269,195356,21.780308,39.075489,74.81,-0.009,-0.051,0.921,0.549,-0.732,-0.312,88.617
301376,195356,21.780308,39.075489,74.81,-0.055,-0.086,1.053,-4.395,2.319,-0.19,88.619
301490,195356,21.780308,39.075489,74.81,-0.012,-0.108,1.17,-4.089,-0.732,-0.068,88.611
301597,195357,21.780161,39.075611,74.88,0.092,-0.156,0.992,-1.709,0.854,-0.129,88.592
301702,195357,21.780161,39.075611,74.88,-0.064,-0.024,0.983,-0.427,2.014,-0.19,88.601
301809,195357,21.780161,39.075611,74.88,-0.038,0.015,1.093,-0.854,-0.305,-0.129,88.606
301916,195357,21.780161,39.075611,74.88,-0.07,-0.03,1.039,-0.549,-0.61,-0.007,88.604
302021,195357,21.780161,39.075611,74.88,-0.026,-0.134,1.164,-3.296,-0.183,0.054,88.585
302136,195357,21.780161,39.075611,74.88,-0.028,-0.11,1.136,-0.916,-0.366,-0.007,88.585
302242,195357,21.780161,39.075611,74.88,-0.045,-0.145,0.923,-0.671,-1.465,-0.129,88.584
302349,195357,21.780161,39.075611,74.88,0.094,-0.145,1.033,-3.906,-0.427,-0.19,88.581
302456,195357,21.780161,39.075611,74.88,-0.015,-0.064,1.1,-1.831,1.648,-0.19,88.555
302563,195358,21.780012,39.075737,74.85,-0.031,-0.152,0.911,-0.244,0,-0.007,88.553
302671,195358,21.780012,39.075737,74.85,0.009,-0.143,0.972,0.122,0.488,0.176,88.562
302778,195358,21.780012,39.075737,74.85,0.023,-0.133,1.055,-0.122,0.305,0.115,88.57
302882,195358,21.780012,39.075737,74.85,-0.056,-0.031,0.937,0.427,0.366,-0.068,88.563
302988,195358,21.780012,39.075737,74.85,-0.032,-0.022,0.953,1.343,-1.221,-0.007,88.551
303096,195358,21.780012,39.075737,74.85,0.025,-0.114,0.949,-1.953,-0.061,-0.19,88.53
303203,195358,21.780012,39.075737,74.85,-0.042,-0.156,0.987,-1.831,0.793,-0.19,88.517
303312,195358,21.780012,39.075737,74.85,-0.084,-0.047,0.91,-1.282,-1.16,-0.251,88.521
303419,195358,21.780012,39.075737,74.85,-0.06,-0.079,1.106,0.916,-0.793,0.298,88.541
303524,195359,21.779863,39.075863,74.63,-0.027,-0.083,1.013,0.61,-1.038,0.359,88.579
303632,195359,21.779863,39.075863,74.63,-0.027,-0.096,0.939,-0.793,0.732,0.054,88.604
303739,195359,21.779863,39.075863,74.63,-0.082,0,0.942,1.587,-0.122,-0.129,88.618
303846,195359,21.779863,39.075863,74.63,-0.048,-0.04,0.867,-0.366,-1.953,-0.068,88.612
303954,195359,21.779863,39.075863,74.63,-0.036,-0.068,1.123,-1.099,-1.526,0.176,88.614
304061,195359,21.779863,39.075863,74.63,-0.047,-0.083,0.845,0.61,-1.16,0.298,88.63
304170,195359,21.779863,39.075863,74.63,-0.041,-0.094,0.98,0.061,0.916,0.115,88.643
304278,195359,21.779863,39.075863,74.63,-0.056,-0.029,1.007,-0.549,0.61,-0.007,88.655
304386,195359,21.779863,39.075863,74.63,-0.101,-0.062,0.923,0.305,0.488,0.115,88.663
304492,195400,21.779716,39.075985,74.53,-0.01,-0.06,0.947,-0.977,-0.854,0.054,88.661
304600,195400,21.779716,39.075985,74.53,-0.071,-0.083,0.997,-2.808,0,-0.007,88.661
304707,195400,21.779716,39.075985,74.53,-0.047,-0.115,0.963,-0.305,0.244,-0.007,88.68
304815,195400,21.779716,39.075985,74.53,-0.051,-0.041,0.853,0.549,0.488,0.237,88.705
304917,195400,21.779716,39.075985,74.53,-0.084,-0.036,0.995,-1.404,0.305,0.176,88.723
305024,195400,21.779716,39.075985,74.53,-0.025,-0.037,1.088,0.427,-0.793,0.237,88.742
305132,195400,21.779716,39.075985,74.53,-0.052,-0.148,1.002,-1.282,-0.793,0.115,88.749
305239,195400,21.779716,39.075985,74.53,-0.078,-0.112,1.028,0.305,-1.526,0.115,88.762
305347,195400,21.779716,39.075985,74.53,-0.034,-0.076,1.028,0.366,0,0.054,88.774
305455,195400,21.779716,39.075985,74.53,-0.024,-0.128,1.228,-2.197,0.854,0.115,88.787
305562,195401,21.77957,39.076111,74.44,-0.02,-0.05,0.921,1.099,0.366,0.115,88.799
305669,195401,21.77957,39.076111,74.44,-0.046,-0.154,0.979,-1.282,1.038,0.115,88.805
305777,195401,21.77957,39.076111,74.44,-0.032,-0.068,0.904,-0.671,-1.282,-0.068,88.804
305884,195401,21.77957,39.076111,74.44,-0.166,-0.027,1.029,-0.793,-1.953,-0.251,88.802
305992,195401,21.77957,39.076111,74.44,-0.126,-0.065,0.913,2.869,-1.221,-0.068,88.795
306099,195401,21.77957,39.076111,74.44,-0.033,-0.054,0.887,1.892,-0.427,-0.129,88.793
306203,195401,21.77957,39.076111,74.44,0.029,-0.118,1.02,-3.174,-0.488,-0.129,88.78
306311,195401,21.77957,39.076111,74.44,-0.065,-0.039,1.004,0,-1.892,-0.19,88.783
306418,195401,21.77957,39.076111,74.44,-0.057,-0.005,0.93,1.831,-1.221,-0.007,88.769
306525,195402,21.779423,39.076233,74.35,-0.052,-0.075,1.065,-0.366,1.953,-0.007,88.766
306633,195402,21.779423,39.076233,74.35,-0.087,-0.087,1.035,-1.343,-0.366,-0.068,88.757
306740,195402,21.779423,39.076233,74.35,-0.019,-0.085,0.944,-0.366,-0.61,-0.129,88.755
306847,195402,21.779423,39.076233,74.35,-0.008,-0.054,1.042,-2.441,1.282,-0.19,88.754
306952,195402,21.779423,39.076233,74.35,-0.089,-0.098,0.93,-1.465,-0.549,-0.129,88.741
307059,195402,21.779423,39.076233,74.35,-0.014,-0.089,1.099,-0.793,-1.038,0.115,88.727
307167,195402,21.779423,39.076233,74.35,-0.014,-0.093,0.966,-1.343,-0.916,-0.068,88.724
307274,195402,21.779423,39.076233,74.35,-0.029,-0.111,1.063,-1.648,1.526,-0.251,88.719
307381,195402,21.779423,39.076233,74.35,-0.053,-0.103,0.938,-1.77,1.343,-0.068,88.71
307489,195403,21.779278,39.076359,74.24,-0.083,-0.105,0.979,-0.061,1.221,0.054,88.701
307593,195403,21.779278,39.076359,74.24,-0.024,-0.115,1.034,-1.221,-0.183,0.115,88.713
307700,195403,21.779278,39.076359,74.24,-0.032,-0.136,1.015,-1.038,-0.854,0.054,88.708
307808,195403,21.779278,39.076359,74.24,-0.031,-0.125,1.158,-1.221,-0.122,0.054,88.715
307915,195403,21.779278,39.076359,74.24,-0.008,-0.088,0.969,-0.488,-0.793,-0.129,88.712
308022,195403,21.779278,39.076359,74.24,-0.102,-0.086,1.151,-1.648,1.404,-0.251,88.708
308130,195403,21.779278,39.076359,74.24,-0.062,-0.097,1.028,-1.465,-0.183,-0.312,88.68
308246,195403,21.779278,39.076359,74.24,-0.012,-0.116,1.138,-1.648,1.099,-0.007,88.679
308354,195403,21.779278,39.076359,74.24,-0.057,-0.075,0.913,0.122,-2.136,-0.068,88.68
308461,195403,21.779278,39.076359,74.24,0.01,-0.104,0.967,0.61,1.648,0.237,88.684
308568,195404,21.779131,39.076481,74.01,-0.041,-0.084,1.062,-0.61,3.357,0.176,88.693
308676,195404,21.779131,39.076481,74.01,-0.075,-0.102,0.844,0.977,0.305,0.054,88.699
308783,195404,21.779131,39.076481,74.01,-0.031,-0.061,1.046,3.113,-0.061,-0.007,88.704
308890,195404,21.779131,39.076481,74.01,-0.113,-0.15,0.971,1.038,-2.625,-0.068,88.712
309008,195404,21.779131,39.076481,74.01,-0.053,-0.064,1.141,-0.366,-1.221,0.054,88.719
309115,195404,21.779131,39.076481,74.01,-0.073,-0.034,0.992,-1.892,-1.526,-0.19,88.712
309222,195404,21.779131,39.076481,74.01,-0.084,-0.063,0.862,0.427,-0.061,-0.19,88.693
309330,195404,21.779131,39.076481,74.01,-0.138,-0.049,0.759,1.526,0.854,-0.068,88.693
309437,195404,21.779131,39.076481,74.01,-0.114,-0.062,0.861,-0.732,0.122,-0.007,88.696
309545,195405,21.778984,39.076603,74.09,-0.039,-0.091,1.05,-1.648,-2.197,-0.007,88.689
309663,195405,21.778984,39.076603,74.09,-0.018,-0.165,1.022,-3.174,-0.427,0.054,88.695
309770,195405,21.778984,39.076603,74.09,-0.082,-0.119,1.083,-1.404,-0.732,-0.19,88.698
309878,195405,21.778984,39.076603,74.09,-0.022,-0.07,0.892,-0.549,0.916,-0.007,88.701
309985,195405,21.778984,39.076603,74.09,-0.061,-0.092,0.903,2.197,0.732,0.054,88.696
310092,195405,21.778984,39.076603,74.09,-0.109,-0.042,0.935,1.16,0.854,-0.251,88.681
310200,195405,21.778984,39.076603,74.09,-0.061,-0.131,1.021,-1.038,0.61,-0.251,88.656
310317,195405,21.778984,39.076603,74.09,-0.063,-0.113,0.993,-1.038,-1.16,-0.434,88.605
310425,195405,21.778984,39.076603,74.09,-0.059,-0.094,1.008,1.892,-2.014,-0.251,88.572
310534,195406,21.778839,39.076729,73.87,-0.012,-0.114,0.994,1.404,-1.404,-0.129,88.559
