Counter,Time,Latitude,Longitude,Speed(km/h),Ax,Ay,Az,Gx,Gy,Gz,Yaw,Pitch,Roll,acceleration_magnitude,distance
1,1900-01-01 21:39:11.400,21.787453,39.067883,0.0,-22,108,16338,0,8,-1,0.01,-0.01,0.43,0.0,0.0
2,1900-01-01 21:39:21.100,21.787455,39.067886,0.0,-70,-80,16032,1,4,-1,0.01,-0.03,0.36,0.0,0.000381
3,1900-01-01 21:39:21.300,21.787455,39.067886,0.0,0,60,16192,2,17,-1,0.01,-0.03,0.3,16192.126111168971,0.0
4,1900-01-01 21:39:21.500,21.787455,39.067886,0.0,20,166,16504,-2,6,0,0.01,-0.02,0.27,16192.130681290835,0.0
5,1900-01-01 21:39:21.700,21.787455,39.067886,0.0,-76,-78,16014,-1,-6,0,0.01,-0.01,0.22,16386.109849503635,0.0
6,1900-01-01 21:39:21.900,21.787455,39.067886,0.0,-46,46,16386,0,16,0,0.01,-0.01,0.2,16504.09403754111,0.0
7,1900-01-01 21:39:22.100,21.787455,39.067886,0.0,42,146,16558,-1,1,-1,0.01,-0.02,0.16,16558.13491912661,0.0
8,1900-01-01 21:39:22.300,21.787455,39.067886,0.0,110,52,16744,-1,-10,0,0.01,-0.01,0.13,16558.13491912661,0.0
9,1900-01-01 21:39:22.500,21.787455,39.067886,0.0,104,76,16700,-2,-4,0,0.01,-0.01,0.12,16558.227682937566,0.0
10,1900-01-01 21:39:22.700,21.787455,39.067886,0.0,-12,-134,16320,1,-2,-1,0.01,-0.01,0.11,16568.209197134132,0.0
11,1900-01-01 21:39:22.800,21.787455,39.067886,0.0,34,132,16172,0,10,0,0.02,-0.01,0.1,16320.21237606913,0.0
12,1900-01-01 21:39:23.000,21.787455,39.067886,0.0,-6,86,16568,-1,3,0,0.02,-0.01,0.09,16320.234434590699,0.0
13,1900-01-01 21:39:23.100,21.787455,39.067886,0.0,36,-92,16196,0,3,-1,0.02,-0.02,0.08,16196.236229445407,0.0
14,1900-01-01 21:39:23.300,21.787455,39.067886,0.0,16,112,16458,1,18,0,0.02,-0.02,0.07,16196.004198567003,0.0
15,1900-01-01 21:39:23.400,21.787455,39.067886,0.0,-22,-152,16042,0,-5,0,0.02,-0.03,0.06,16196.120646623993,0.0
16,1900-01-01 21:39:23.600,21.787455,39.067886,0.0,-68,-10,16084,0,8,0,0.02,-0.03,0.06,16248.005046774204,0.0
17,1900-01-01 21:39:23.700,21.787455,39.067886,0.0,8,-62,16248,0,-6,0,0.02,-0.02,0.06,16142.005079914949,0.0
18,1900-01-01 21:39:23.800,21.787455,39.067886,0.0,120,32,16926,-1,-16,0,0.03,-0.01,0.05,16142.005079914949,0.0
19,1900-01-01 21:39:24.000,21.787455,39.067886,0.0,30,116,16142,1,16,0,0.02,-0.02,0.06,16142.121050221374,0.0
20,1900-01-01 21:39:24.100,21.787455,39.067886,0.0,-74,-144,16064,-1,-4,-1,0.03,-0.03,0.05,16142.03617887161,0.0
21,1900-01-01 21:39:24.200,21.787455,39.067886,0.0,-48,-88,16028,1,-1,-1,0.03,-0.02,0.04,16064.043949143068,0.0
22,1900-01-01 21:39:24.400,21.787455,39.067886,0.0,12,90,16232,1,19,0,0.03,-0.02,0.03,16064.107693862115,0.0
23,1900-01-01 21:39:24.500,21.787455,39.067886,0.0,-16,-34,16018,1,2,0,0.03,-0.02,0.03,16092.07954243329,0.0
24,1900-01-01 21:39:24.600,21.787455,39.067886,0.0,-48,48,16092,1,10,0,0.03,-0.02,0.03,16232.071093979352,0.0
25,1900-01-01 21:39:24.800,21.787455,39.067886,0.0,2,100,16344,1,10,0,0.03,-0.01,0.03,16092.068108232701,0.0
26,1900-01-01 21:39:24.900,21.787455,39.067886,0.0,8,30,16406,0,13,0,0.03,-0.02,0.02,16344.059348888819,0.0
27,1900-01-01 21:39:25.000,21.787455,39.067886,0.0,-42,44,16056,2,11,0,0.03,-0.03,0.02,16344.059348888819,0.0
28,1900-01-01 21:39:25.200,21.787455,39.067886,0.0,68,-78,16800,-1,-15,0,0.03,-0.02,0.02,16406.060953196535,0.0
29,1900-01-01 21:39:25.300,21.787455,39.067886,0.0,-36,60,16266,2,14,0,0.03,-0.03,0.02,16654.21388117734,0.0
30,1900-01-01 21:39:25.400,21.787455,39.067886,0.0,102,110,16798,-1,-7,-1,0.03,-0.01,0.02,16654.24690581955,0.0
31,1900-01-01 21:39:25.500,21.787455,39.067886,0.0,78,50,16654,-2,4,0,0.03,-0.03,0.02,16586.225851591433,0.0
32,1900-01-01 21:39:25.600,21.787455,39.067886,0.0,56,66,16586,-2,-1,0,0.03,-0.02,0.02,16586.225851591433,0.0
33,1900-01-01 21:39:25.800,21.787455,39.067886,0.0,36,138,16536,0,1,0,0.03,-0.01,0.02,16586.16990145706,0.0
34,1900-01-01 21:39:25.900,21.787455,39.067886,0.0,-64,4,16062,2,11,1,0.03,-0.03,0.02,16586.039551381757,0.0
35,1900-01-01 21:39:26.100,21.787455,39.067886,0.0,84,-54,16778,-1,-15,-1,0.03,-0.02,0.01,16536.035437794635,0.0
36,1900-01-01 21:39:26.200,21.787455,39.067886,0.0,34,-48,16590,-2,-12,0,0.03,-0.02,0.01,16394.10552607247,0.0
37,1900-01-01 21:39:26.300,21.787455,39.067886,0.0,-78,68,16370,-2,1,1,0.03,-0.03,0.01,16394.304132838333,0.0
38,1900-01-01 21:39:26.500,21.787455,39.067886,0.0,616,-90,16394,-1,-10,1,0.02,-0.15,-0.0,16377.643542341493,0.0
39,1900-01-01 21:39:26.600,21.787455,39.067886,0.0,580,-192,16282,1,-5,1,0.01,-0.35,0.01,16380.213185425884,0.0
40,1900-01-01 21:39:26.700,21.787457,39.067886,0.0,498,218,16360,0,17,1,-0.01,-0.56,0.02,16404.198243132763,0.000222
41,1900-01-01 21:39:26.900,21.787457,39.067886,0.0,578,-20,16496,-1,-5,2,-0.02,-0.66,0.01,16369.390092486647,0.0
42,1900-01-01 21:39:27.000,21.787457,39.067886,0.0,546,156,16838,-1,-5,4,-0.04,-0.76,0.0,16503.79459397141,0.0
43,1900-01-01 21:39:27.100,21.787457,39.067886,0.0,418,96,16140,3,16,5,-0.08,-0.84,0.02,16501.766814495957,0.0
44,1900-01-01 21:39:27.300,21.787457,39.067886,0.0,436,-14,16776,0,-15,5,-0.12,-0.93,0.03,16145.417925838898,0.0
45,1900-01-01 21:39:27.400,21.787457,39.067886,0.0,284,-46,15970,0,4,8,-0.16,-0.98,0.04,16142.508479167665,0.0
46,1900-01-01 21:39:27.500,21.787457,39.067886,0.0,238,-166,16140,2,-4,5,-0.21,-1.03,0.04,16142.563984695864,0.0
47,1900-01-01 21:39:27.600,21.787457,39.067886,0.0,186,-18,16644,-8,-6,9,-0.28,-1.01,0.03,16142.563984695864,0.0
48,1900-01-01 21:39:27.800,21.787457,39.067886,0.0,302,-146,16108,-15,-11,7,-0.34,-1.03,-0.0,16300.807710049217,0.0
49,1900-01-01 21:39:27.900,21.787457,39.067886,0.0,612,-6,16368,-9,11,5,-0.38,-1.1,-0.12,16309.496374811823,0.0
50,1900-01-01 21:39:28.100,21.787457,39.067886,0.0,984,24,16298,-18,-14,10,-0.46,-1.33,-0.25,16328.33047191292,0.0
51,1900-01-01 21:39:28.200,21.787457,39.067886,0.0,1094,-252,15802,-16,6,6,-0.49,-1.51,-0.34,16404.52937453556,0.0
52,1900-01-01 21:39:28.300,21.787457,39.067886,0.0,1442,-180,16854,-7,-4,12,-0.58,-1.8,-0.49,16802.61860544362,0.0
53,1900-01-01 21:39:28.500,21.787457,39.067886,0.0,1286,-18,16766,5,-13,12,-0.72,-2.09,-0.55,16803.54414997027,0.0
54,1900-01-01 21:39:28.600,21.787457,39.067886,0.0,980,-308,16898,1,-17,15,-0.82,-2.21,-0.57,16837.63653248282,0.0
55,1900-01-01 21:39:28.700,21.787457,39.067886,0.0,752,-326,15620,12,8,14,-0.98,-2.29,-0.52,16800.902951924934,0.0
56,1900-01-01 21:39:28.900,21.787457,39.067886,0.0,1080,-38,16802,-3,-31,28,-1.1,-2.32,-0.51,16384.534781311308,0.0
57,1900-01-01 21:39:29.000,21.787457,39.067886,0.0,1214,-72,16346,-18,-13,13,-1.3,-2.48,-0.44,16382.18764390153,0.0
58,1900-01-01 21:39:29.200,21.787457,39.067886,0.0,1738,-462,16070,-18,-55,25,-1.49,-2.6,-0.68,16837.20760696381,0.0
59,1900-01-01 21:39:29.300,21.787457,39.06789,0.0,720,-134,17422,-14,-81,17,-1.66,-2.58,-0.78,16368.370719164446,0.000413
60,1900-01-01 21:39:29.400,21.787457,39.06789,0.0,-120,-1598,17964,5,25,24,-1.86,-2.32,-0.97,16102.513344195682,0.0
61,1900-01-01 21:39:29.600,21.787457,39.06789,0.0,108,-774,16086,35,16,42,-2.09,-2.4,-1.04,16096.442091344286,0.0
62,1900-01-01 21:39:29.700,21.787457,39.06789,0.0,564,296,15634,54,1,36,-2.35,-2.57,-0.69,15852.04453690438,0.0
63,1900-01-01 21:39:29.800,21.787457,39.06789,0.0,706,358,14904,24,39,31,-2.56,-2.62,-0.22,15725.613374364766,0.0
64,1900-01-01 21:39:30.000,21.787457,39.06789,0.0,654,-16,15842,-18,23,34,-2.91,-2.62,-0.03,15725.613374364766,0.0
65,1900-01-01 21:39:30.100,21.787457,39.06789,0.0,1024,-412,15712,-12,1,29,-3.12,-2.63,-0.15,15855.501758064927,0.0
66,1900-01-01 21:39:30.200,21.787457,39.06789,0.0,410,-226,16876,-3,-20,37,-3.39,-2.62,-0.27,16888.675140460247,0.0
67,1900-01-01 21:39:30.400,21.787457,39.06789,0.0,452,126,17290,-6,-100,31,-3.74,-2.62,-0.24,16895.62002413643,0.0
68,1900-01-01 21:39:30.500,21.787457,39.06789,0.0,1168,96,17878,-28,-69,43,-3.96,-2.38,-0.25,17308.63218166011,0.0
69,1900-01-01 21:39:30.600,21.787457,39.06789,0.0,782,-700,16050,-24,35,42,-4.26,-2.28,-0.41,17308.63218166011,0.0
70,1900-01-01 21:39:30.700,21.787457,39.06789,0.0,854,-182,17356,1,-27,32,-4.49,-2.32,-0.61,16510.25354136029,0.0
71,1900-01-01 21:39:30.800,21.787457,39.06789,0.0,70,-412,14740,-33,46,54,-4.79,-2.42,-0.72,16321.950618722016,0.0
72,1900-01-01 21:39:31.000,21.787457,39.06789,0.0,1210,-370,16484,-6,-48,44,-5.15,-2.57,-0.77,16325.558612188435,0.0
73,1900-01-01 21:39:31.100,21.787457,39.06789,0.0,756,-916,16298,-3,17,37,-5.41,-2.81,-0.88,14892.986403001918,0.0
74,1900-01-01 21:39:31.200,21.787457,39.06789,0.0,1562,-668,14712,-2,133,44,-5.67,-3.13,-0.93,16326.261176399206,0.0
75,1900-01-01 21:39:31.300,21.787457,39.06789,0.0,600,-592,14862,24,28,45,-5.98,-3.21,-0.91,14885.88284247864,0.0
76,1900-01-01 21:39:31.400,21.787457,39.06789,0.0,174,-258,17482,45,-39,38,-6.28,-2.75,-0.68,14838.38063940941,0.0
77,1900-01-01 21:39:31.500,21.787457,39.06789,0.0,118,314,13600,34,98,51,-6.54,-2.74,-0.33,14874.606818333048,0.0
78,1900-01-01 21:39:31.600,21.787457,39.06789,0.0,1132,704,14824,5,73,52,-6.88,-2.8,-0.01,16043.423824109366,0.0
79,1900-01-01 21:39:31.700,21.787457,39.06789,0.0,1068,122,16676,-21,-81,39,-7.14,-2.74,0.05,16048.844195143774,0.0
80,1900-01-01 21:39:31.800,21.787457,39.06789,0.0,858,-412,16020,3,-34,38,-7.37,-2.69,-0.09,16661.646857378775,0.0
81,1900-01-01 21:39:31.900,21.787457,39.06789,0.0,954,-208,16884,15,-37,49,-7.64,-2.57,-0.2,16701.78002489555,0.0
82,1900-01-01 21:39:32.000,21.787457,39.06789,0.0,422,-102,16634,-6,-23,44,-8.08,-2.5,-0.08,16717.755351721116,0.0
83,1900-01-01 21:39:32.200,21.787457,39.06789,0.0,904,-428,16692,-18,-80,42,-8.48,-2.48,-0.03,16909.462912818963,0.0
84,1900-01-01 21:39:32.300,21.787457,39.06789,0.0,960,92,17656,-19,-5,48,-8.8,-2.33,-0.08,16704.962376491603,0.0
85,1900-01-01 21:39:32.400,21.787457,39.06789,0.0,564,-310,17596,13,-88,43,-9.14,-2.17,-0.2,16704.904309812733,0.0
86,1900-01-01 21:39:32.600,21.787457,39.06789,0.0,650,694,16442,11,3,21,-9.38,-2.04,-0.08,17428.1264627039,0.0
87,1900-01-01 21:39:32.700,21.787457,39.06789,0.0,288,264,15280,17,8,10,-9.51,-1.83,0.23,17140.086930934744,0.0
88,1900-01-01 21:39:32.800,21.787457,39.06789,0.0,1168,440,17414,-15,-24,4,-9.55,-1.91,0.43,16800.17380862472,0.0
89,1900-01-01 21:39:32.900,21.787457,39.06789,0.0,190,310,17128,-4,-55,-11,-9.54,-1.94,0.5,16850.137684897414,0.0
90,1900-01-01 21:39:33.100,21.787458,39.067894,7.99,464,466,16788,12,-12,-5,-9.42,-1.9,0.42,16862.682348902857,0.000428
91,1900-01-01 21:39:33.200,21.78746,39.067894,8.97,784,532,16838,-25,-13,-6,-9.42,-1.91,0.52,16856.452533080617,0.000222
92,1900-01-01 21:39:33.400,21.787464,39.067898,9.05,1386,558,16396,7,-15,-11,-9.33,-1.95,0.52,16806.50743015931,0.000607
93,1900-01-01 21:39:33.500,21.787466,39.067902,9.1,582,868,19640,-12,-132,-14,-9.22,-1.96,0.55,16628.70554192358,0.000469
94,1900-01-01 21:39:33.700,21.787468,39.067905,9.15,-614,-480,16610,-30,-5,-11,-9.17,-1.99,0.48,16405.074458837425,0.000381
95,1900-01-01 21:39:33.800,21.78747,39.067905,9.19,-304,506,15556,-28,41,-19,-9.05,-1.72,0.36,16611.85961895898,0.000222
96,1900-01-01 21:39:33.900,21.787472,39.067909,9.27,204,-142,15596,-50,-25,-11,-8.94,-1.64,0.16,16611.404516175025,0.000469
97,1900-01-01 21:39:34.100,21.787476,39.067913,9.49,362,-596,17162,-13,25,-19,-8.81,-1.46,-0.26,16637.340652880797,0.000607
98,1900-01-01 21:39:34.200,21.787477,39.067913,9.51,128,-174,16636,15,-1,-12,-8.72,-1.25,-0.35,16637.340652880797,0.000111
99,1900-01-01 21:39:34.400,21.787481,39.067917,9.74,-130,-168,16914,2,6,-7,-8.59,-1.03,-0.18,16829.135687848026,0.000607
100,1900-01-01 21:39:34.500,21.787483,39.067921,9.72,20,1256,15378,-15,5,-8,-8.56,-0.98,-0.0,16828.263368511914,0.000469
101,1900-01-01 21:39:34.600,21.787485,39.067924,9.95,100,-92,16828,-8,-42,-15,-8.46,-1.0,-0.09,16914.21059346253,0.000381
102,1900-01-01 21:39:34.700,21.787487,39.067924,10.1,-794,42,18894,14,-105,-6,-8.37,-0.93,-0.19,17602.05681163426,0.000222
103,1900-01-01 21:39:34.900,21.787491,39.067928,10.47,192,-82,17842,-13,-122,-1,-8.36,-0.83,-0.14,17602.173843022912,0.000607
104,1900-01-01 21:39:35.000,21.787495,39.067932,10.73,-474,40,17602,-13,-101,-12,-8.32,-0.64,-0.16,17602.39279189054,0.000607
105,1900-01-01 21:39:35.100,21.787497,39.067936,10.82,-6,-78,14382,2,97,-7,-8.19,-0.52,-0.38,17602.173843022912,0.000469
106,1900-01-01 21:39:35.200,21.787498,39.067936,10.87,-88,-674,16682,-2,-16,-6,-8.16,-0.41,-0.52,17602.046471930473,0.000111
107,1900-01-01 21:39:35.300,21.7875,39.06794,10.86,118,344,18080,30,-13,-15,-8.08,-0.32,-0.5,17102.49256687457,0.000469
108,1900-01-01 21:39:35.400,21.787502,39.067944,10.8,108,404,18310,-16,-38,-8,-7.99,-0.19,-0.35,17820.47272100266,0.000469
109,1900-01-01 21:39:35.500,21.787504,39.067947,10.73,380,-72,17102,-9,-37,-13,-7.95,-0.14,-0.38,18081.218543007548,0.000381
110,1900-01-01 21:39:35.700,21.78751,39.067951,10.5,-602,-668,17820,12,-56,-12,-7.8,-0.03,-0.57,17822.552118032927,0.000785
111,1900-01-01 21:39:35.800,21.787512,39.067955,10.44,-242,180,20264,6,-152,-13,-7.74,0.1,-0.53,17573.025009940662,0.000469
112,1900-01-01 21:39:35.900,21.787514,39.067955,10.39,-318,276,17570,-7,-57,-11,-7.67,0.07,-0.38,17575.754549947495,0.000222
113,1900-01-01 21:39:36.000,21.787516,39.067959,10.32,-416,-318,15668,-18,20,-12,-7.61,0.13,-0.39,17572.132710630205,0.000469
114,1900-01-01 21:39:36.200,21.787519,39.067963,10.11,546,-684,14040,16,75,-17,-7.47,0.04,-0.49,16969.46269037414,0.000531
115,1900-01-01 21:39:36.300,21.787521,39.067966,10.12,6,-128,17898,17,-84,-5,-7.39,0.07,-0.43,16969.336463162017,0.000381
116,1900-01-01 21:39:36.400,21.787523,39.067966,10.17,-328,502,16966,-25,-10,-4,-7.36,0.38,-0.31,16966.839422827106,0.000222
117,1900-01-01 21:39:36.600,21.787527,39.067974,10.23,-110,-936,17160,-12,-21,-19,-7.22,0.3,-0.51,16969.204341983746,0.000938
118,1900-01-01 21:39:36.700,21.787529,39.067974,10.26,-370,56,16686,-20,-47,-9,-7.11,0.25,-0.67,16690.195684892373,0.000222
119,1900-01-01 21:39:36.800,21.787533,39.067978,10.23,-1526,-34,16000,30,22,-3,-7.07,0.35,-0.65,16620.213356031265,0.000607
120,1900-01-01 21:39:37.000,21.787537,39.067982,10.19,-520,190,16616,12,73,-17,-6.98,0.36,-0.47,16004.375526711437,0.000607
121,1900-01-01 21:39:37.100,21.787539,39.067986,10.14,-22,330,15438,13,2,-4,-6.91,0.34,-0.46,16004.08560337016,0.000469
122,1900-01-01 21:39:37.200,21.78754,39.067986,10.1,10,-684,15204,25,-15,-2,-6.91,0.35,-0.5,15956.837531290466,0.000111
123,1900-01-01 21:39:37.300,21.787542,39.067989,10.09,-360,-246,17374,21,-13,-15,-6.85,0.36,-0.36,15956.837531290466,0.000381
124,1900-01-01 21:39:37.400,21.787544,39.067993,10.12,344,-162,15956,4,-23,-5,-6.8,0.16,-0.2,16145.888516894944,0.000469
125,1900-01-01 21:39:37.500,21.787548,39.067993,10.14,-742,544,16140,-20,-34,-6,-6.77,0.29,-0.0,17378.737123277973,0.000445
126,1900-01-01 21:39:37.600,21.78755,39.067997,10.09,-372,-1102,17754,-12,-7,-2,-6.74,0.37,-0.22,16148.571949246782,0.000469
127,1900-01-01 21:39:37.700,21.787552,39.068001,10.0,-672,494,17584,8,-27,-12,-6.7,0.26,-0.29,17591.86834875705,0.000469
128,1900-01-01 21:39:37.800,21.787554,39.068001,9.99,-526,10,15922,31,-12,-3,-6.63,0.33,-0.33,17590.163160130152,0.000222
129,1900-01-01 21:39:37.900,21.787556,39.068005,9.93,-320,-334,19008,4,-146,-8,-6.56,0.42,-0.19,16919.029404785608,0.000469
130,1900-01-01 21:39:38.000,21.787558,39.068008,9.91,-238,-280,15442,7,72,-3,-6.55,0.45,-0.13,15925.21849143678,0.000381
131,1900-01-01 21:39:38.100,21.78756,39.068008,9.66,-204,288,16916,-6,-107,-10,-6.51,0.41,-0.06,16920.125413246795,0.000222
132,1900-01-01 21:39:38.200,21.787561,39.068012,9.76,-320,1194,14610,-22,111,-9,-6.47,0.51,-0.03,16919.681320875992,0.000428
133,1900-01-01 21:39:38.300,21.787565,39.068016,9.61,410,1184,17434,-5,-3,-19,-6.38,0.34,-0.07,16919.305541303995,0.000607
134,1900-01-01 21:39:38.400,21.787567,39.068016,9.57,-126,-1048,17794,-38,-89,-1,-6.3,0.36,-0.28,17435.600133061092,0.000222
135,1900-01-01 21:39:38.500,21.787569,39.06802,9.44,-170,-1284,15534,-25,11,-12,-6.26,0.37,-0.5,17816.06679376792,0.000469
136,1900-01-01 21:39:38.700,21.787573,39.068024,9.47,-272,164,18054,-4,-49,-13,-6.18,0.31,-0.62,17817.332011274862,0.000607
137,1900-01-01 21:39:38.800,21.787575,39.068024,9.16,-334,-870,19786,45,-139,-14,-6.11,0.37,-0.64,18067.661608520346,0.000222
138,1900-01-01 21:39:38.900,21.787579,39.068027,9.14,-592,596,16946,3,36,6,-6.05,0.29,-0.52,18070.122633784198,0.000542
139,1900-01-01 21:39:39.000,21.78758,39.068031,9.01,-580,-618,20074,26,-106,-8,-6.05,0.34,-0.5,16964.18686527592,0.000428
140,1900-01-01 21:39:39.100,21.787582,39.068031,9.0,-648,-496,16538,-29,40,-11,-5.98,0.39,-0.46,16558.12078709417,0.000222
141,1900-01-01 21:39:39.200,21.787584,39.068035,9.0,-1270,-516,15184,96,110,7,-5.97,0.23,-0.68,16558.12078709417,0.000469
142,1900-01-01 21:39:39.300,21.787586,39.068035,8.89,-980,12,14600,41,94,16,-6.0,-0.07,-0.23,15969.157272692883,0.000222
143,1900-01-01 21:39:39.400,21.787588,39.068039,8.91,162,1072,17154,-28,124,4,-6.1,-0.46,0.19,15327.099660405422,0.000469
144,1900-01-01 21:39:39.500,21.78759,39.068043,8.8,-308,116,15956,-3,155,-6,-6.08,-1.02,0.11,15957.777288833178,0.000469
145,1900-01-01 21:39:39.700,21.787594,39.068047,8.65,-208,-1078,15324,1,164,14,-6.09,-1.62,-0.25,15957.243997633175,0.000607
146,1900-01-01 21:39:39.800,21.787596,39.06805,8.48,1340,1080,18292,21,-18,-2,-6.13,-2.42,-0.12,15954.749386938047,0.000381
147,1900-01-01 21:39:39.900,21.787598,39.06805,8.38,590,-242,15942,27,83,0,-6.13,-2.91,0.01,15983.407146162548,0.000222
148,1900-01-01 21:39:40.000,21.787601,39.068054,8.36,1392,-470,15444,15,114,4,-6.13,-3.4,0.1,17529.35252654815,0.000531
149,1900-01-01 21:39:40.100,21.787601,39.068058,8.36,1124,1190,17478,-6,20,14,-6.21,-3.85,0.27,17148.365869668163,0.000413
150,1900-01-01 21:39:40.200,21.787605,39.068062,8.33,1732,-46,19346,-32,-23,-10,-6.23,-4.28,0.36,17386.27619704691,0.000607
151,1900-01-01 21:39:40.400,21.787607,39.068066,8.3,1368,-546,17092,-78,62,0,-6.21,-4.5,0.03,17379.98319907128,0.000469
152,1900-01-01 21:39:40.500,21.787611,39.068066,8.15,476,-1656,17326,6,-17,-18,-6.15,-4.96,-0.69,17158.98528468394,0.000445
153,1900-01-01 21:39:40.600,21.787613,39.068069,7.9,1514,744,14640,17,47,4,-6.08,-5.27,-0.73,16900.73146346039,0.000381
154,1900-01-01 21:39:40.700,21.787615,39.068069,7.44,1960,728,16828,-57,-13,7,-6.19,-5.31,-0.44,16894.97830717755,0.000222
155,1900-01-01 21:39:40.800,21.787617,39.068073,7.23,1468,-1150,14548,-34,35,-17,-6.23,-5.44,-0.85,15694.51509285967,0.000469
156,1900-01-01 21:39:41.000,21.787619,39.068077,7.17,1220,-322,18268,-24,-84,5,-6.03,-5.65,-1.2,15690.144422534804,0.000469
157,1900-01-01 21:39:41.100,21.787622,39.068081,6.97,2270,-436,15618,16,74,10,-6.11,-5.59,-1.21,15348.948237582925,0.000531
158,1900-01-01 21:39:41.200,21.787624,39.068081,6.88,1328,-26,15288,-20,-21,-18,-6.08,-5.65,-1.07,15677.665387422963,0.000222
159,1900-01-01 21:39:41.300,21.787626,39.068085,6.74,884,426,14852,-12,18,-1,-5.98,-5.72,-1.07,15705.795745520187,0.000469
160,1900-01-01 21:39:41.500,21.78763,39.068089,6.66,1608,-1432,16932,-18,58,3,-6.02,-5.86,-1.33,15354.651152012539,0.000607
161,1900-01-01 21:39:41.600,21.787632,39.068089,6.52,1600,-944,16294,56,60,-12,-5.94,-6.04,-1.47,15285.144683646275,0.000222
162,1900-01-01 21:39:41.700,21.787634,39.068092,6.46,1300,-528,14756,82,67,-3,-5.88,-6.18,-1.18,16268.277351950943,0.000381
163,1900-01-01 21:39:41.800,21.787638,39.068096,6.34,2380,984,15192,30,33,4,-5.84,-6.53,-0.52,16266.242590100517,0.000607
164,1900-01-01 21:39:41.900,21.78764,39.068096,6.23,1658,1018,16180,-12,0,0,-5.85,-6.91,-0.23,15853.77242172979,0.000222
165,1900-01-01 21:39:42.000,21.787642,39.0681,6.08,2984,222,16602,-47,-48,-18,-5.83,-6.89,-0.19,16355.926632263914,0.000469
166,1900-01-01 21:39:42.100,21.787643,39.068104,5.82,2220,-1592,15696,-34,5,-25,-5.73,-7.03,-0.55,16361.499320050103,0.000428
167,1900-01-01 21:39:42.200,21.787645,39.068104,5.59,2418,244,17330,-12,-17,-13,-5.62,-7.03,-0.81,16061.07069905366,0.000222
168,1900-01-01 21:39:42.300,21.787647,39.068108,5.47,2598,862,15544,-15,-58,-9,-5.58,-7.32,-0.87,16060.078829196325,0.000469
169,1900-01-01 21:39:42.400,21.787649,39.068108,5.45,3326,132,15848,-39,8,-10,-5.55,-7.46,-0.84,16060.078829196325,0.000222
170,1900-01-01 21:39:42.500,21.787653,39.068111,5.33,2922,-868,16198,-28,42,-20,-5.51,-7.65,-0.93,16038.00062351913,0.000542
171,1900-01-01 21:39:42.600,21.787655,39.068115,5.3,2256,-1026,15758,-18,33,-25,-5.36,-7.83,-1.22,16050.111276872818,0.000469
172,1900-01-01 21:39:42.700,21.787657,39.068115,5.26,2926,-604,15354,-33,-20,-6,-5.33,-7.75,-1.48,15982.651219369081,0.000222
173,1900-01-01 21:39:42.800,21.787659,39.068119,5.28,2142,-1000,15668,70,-24,-31,-5.22,-7.75,-1.52,15982.651219369081,0.000469
174,1900-01-01 21:39:42.900,21.787661,39.068119,5.22,2476,-1162,16992,52,-34,-18,-4.98,-7.69,-1.37,17182.067861581738,0.000222
175,1900-01-01 21:39:43.000,21.787663,39.068123,5.16,2578,1298,17316,50,-77,0,-4.91,-7.54,-0.82,17130.012609452453,0.000469
176,1900-01-01 21:39:43.100,21.787664,39.068123,5.24,660,738,17126,-46,-126,-46,-4.75,-6.92,-0.41,17028.462408567604,0.000111
177,1900-01-01 21:39:43.200,21.787666,39.068127,5.18,1058,-348,14736,-3,54,-42,-4.46,-6.57,-0.46,16972.09168016718,0.000469
178,1900-01-01 21:39:43.300,21.787668,39.06813,5.0,800,-1340,16946,-27,-51,-33,-4.26,-6.19,-0.76,16064.289091024228,0.000381
179,1900-01-01 21:39:43.400,21.78767,39.06813,4.81,874,-572,15276,50,-41,-57,-3.95,-5.81,-0.89,15757.934001638667,0.000222
180,1900-01-01 21:39:43.500,21.787672,39.068134,4.74,960,-522,16032,45,-38,-49,-3.54,-5.31,-0.67,16069.19749085187,0.000469
181,1900-01-01 21:39:43.600,21.787674,39.068134,4.57,1040,348,15720,25,-59,-49,-3.25,-4.94,-0.37,16067.999502116,0.000222
182,1900-01-01 21:39:43.700,21.787678,39.068138,4.6,1102,440,16484,45,-92,-57,-2.84,-4.33,-0.0,16523.033740811643,0.000607
183,1900-01-01 21:39:43.800,21.787678,39.068142,4.57,1414,272,17098,-6,-57,-58,-2.44,-4.02,0.16,16874.210618574132,0.000413
184,1900-01-01 21:39:43.900,21.78768,39.068142,4.44,1190,152,16830,20,-4,-76,-2.04,-3.95,0.27,16915.217527421868,0.000222
185,1900-01-01 21:39:44.000,21.787682,39.068146,4.4,1572,210,16872,0,-90,-108,-1.39,-3.83,0.41,17034.91309047393,0.000469
186,1900-01-01 21:39:44.100,21.787685,39.06815,4.28,806,144,16992,20,-31,-92,-0.79,-3.62,0.35,16892.73761117481,0.000531
187,1900-01-01 21:39:44.200,21.787687,39.06815,4.22,534,558,17154,28,-31,-87,-0.23,-3.41,0.49,16892.83410206825,0.000222
188,1900-01-01 21:39:44.300,21.787689,39.068153,4.3,810,1272,16214,-33,-41,-111,0.29,-3.16,0.71,16235.678489056132,0.000381
189,1900-01-01 21:39:44.400,21.787691,39.068153,4.28,682,232,15794,-12,-33,-113,0.98,-3.02,0.6,16134.015867105127,0.000222
190,1900-01-01 21:39:44.500,21.787693,39.068157,4.19,1230,-966,15176,-1,81,-118,1.61,-3.09,0.49,16154.087160839514,0.000469
191,1900-01-01 21:39:44.600,21.787697,39.068161,4.19,1142,-318,16112,19,-42,-127,2.37,-3.22,0.42,16157.40424696987,0.000607
192,1900-01-01 21:39:44.700,21.787699,39.068165,4.23,1628,274,16370,32,-19,-128,3.08,-3.16,0.52,16415.337949612855,0.000469
193,1900-01-01 21:39:44.800,21.787701,39.068165,4.09,1188,800,16730,13,-43,-138,3.9,-3.15,0.84,16771.169905525374,0.000222
194,1900-01-01 21:39:44.900,21.787703,39.068169,4.05,-104,970,17194,-42,14,-144,4.76,-3.09,0.96,16732.390026532372,0.000469
195,1900-01-01 21:39:45.000,21.787704,39.068172,4.02,-1044,-92,17870,-70,40,-158,5.64,-2.93,0.66,16730.399397503934,0.000329
196,1900-01-01 21:39:45.100,21.787708,39.068176,4.1,70,-1640,15794,-2,83,-177,6.68,-3.03,0.13,15794.423066386438,0.000607
197,1900-01-01 21:39:45.200,21.78771,39.068176,3.99,2232,-1456,14840,44,53,-138,7.65,-3.39,-0.18,15437.511716594743,0.000222
198,1900-01-01 21:39:45.300,21.787712,39.06818,3.93,1662,20,15020,74,4,-128,8.46,-3.86,-0.12,15437.250532397276,0.000469
199,1900-01-01 21:39:45.400,21.787714,39.068184,3.86,1620,1200,15352,97,-36,-159,9.35,-4.02,0.52,15453.190867908155,0.000469
200,1900-01-01 21:39:45.500,21.787716,39.068188,3.8,1190,1326,16592,47,0,-180,10.55,-4.04,1.29,16299.989815947738,0.000469
201,1900-01-01 21:39:45.600,21.787718,39.068188,3.7,1208,702,16638,2,-22,-170,11.63,-4.0,1.5,16298.665712260006,0.000222
202,1900-01-01 21:39:45.700,21.78772,39.068192,3.66,754,424,16240,-10,-7,-177,12.67,-3.88,1.47,16289.06000971204,0.000469
203,1900-01-01 21:39:45.800,21.787722,39.068195,3.61,1110,402,16156,-14,-19,-188,13.78,-3.85,1.35,16290.384894163797,0.000381
204,1900-01-01 21:39:45.900,21.787724,39.068195,3.62,1676,-6,16210,48,-7,-207,15.11,-3.93,1.19,16283.41106770937,0.000222
205,1900-01-01 21:39:46.000,21.787725,39.068199,3.64,1424,698,16532,32,-41,-205,17.05,-4.12,1.52,16265.899913622978,0.000428
206,1900-01-01 21:39:46.100,21.787727,39.068203,3.7,966,550,16618,-2,-45,-204,18.28,-4.06,1.68,16275.060061333106,0.000469
207,1900-01-01 21:39:46.200,21.787729,39.068207,3.72,1230,790,15534,44,49,-231,19.63,-4.16,1.76,16480.504118503173,0.000469
208,1900-01-01 21:39:46.300,21.787731,39.068207,3.65,1314,622,15622,38,40,-259,21.33,-4.43,1.99,15813.668644561894,0.000222
209,1900-01-01 21:39:46.400,21.787733,39.068211,3.68,1304,1052,16414,49,15,-250,22.75,-4.57,2.18,15828.920367479268,0.000469
210,1900-01-01 21:39:46.500,21.787735,39.068214,3.78,1798,1250,15740,29,32,-273,24.5,-4.72,2.51,16361.1855316172,0.000381
211,1900-01-01 21:39:46.600,21.787737,39.068218,3.81,1178,1698,16530,18,-20,-295,26.42,-4.8,2.8,16403.379529840793,0.000469
212,1900-01-01 21:39:46.800,21.787739,39.068222,3.88,654,1070,16274,-20,29,-289,28.2,-4.72,2.78,16387.649373842487,0.000469
213,1900-01-01 21:39:46.900,21.787741,39.068222,3.97,610,960,16326,-19,32,-305,30.33,-4.58,2.52,16374.092096968308,0.000222
214,1900-01-01 21:39:47.000,21.787743,39.068226,4.03,674,1820,16404,-28,-4,-314,32.23,-4.46,2.31,16316.965771858444,0.000469
215,1900-01-01 21:39:47.100,21.787743,39.06823,4.1,426,1014,15602,-116,-39,-287,34.01,-4.06,2.01,16191.708742439756,0.000413
216,1900-01-01 21:39:47.200,21.787745,39.068233,4.12,98,-1232,15666,-80,-2,-307,35.95,-3.57,1.02,16030.161321708525,0.000381
217,1900-01-01 21:39:47.300,21.787746,39.068237,4.16,546,-1032,16154,2,52,-319,37.48,-3.44,0.42,15676.390783595565,0.000428
218,1900-01-01 21:39:47.400,21.787748,39.068237,4.23,616,-166,16020,34,46,-312,39.23,-3.57,0.27,15970.747509118037,0.000222
219,1900-01-01 21:39:47.500,21.78775,39.068241,4.36,996,282,15098,61,69,-312,40.76,-3.75,0.38,16036.294459755969,0.000469
220,1900-01-01 21:39:47.600,21.78775,39.068245,4.5,1002,138,15958,73,15,-328,42.74,-3.9,0.71,16041.771099227168,0.000413
221,1900-01-01 21:39:47.700,21.787752,39.068249,4.65,714,-112,16648,86,-66,-333,44.76,-3.79,1.08,16669.05456227197,0.000469
222,1900-01-01 21:39:47.800,21.787754,39.068253,4.98,824,150,17128,123,-58,-346,46.82,-3.43,1.52,17143.53172482263,0.000469
223,1900-01-01 21:39:47.900,21.787754,39.068256,5.16,404,220,18398,118,-150,-348,49.19,-2.96,2.03,17134.176373552364,0.00031
224,1900-01-01 21:39:48.000,21.787756,39.06826,5.3,-728,2536,17668,98,-59,-318,50.98,-2.51,2.75,17262.759107396476,0.000469
225,1900-01-01 21:39:48.100,21.787756,39.06826,5.48,-862,3478,16050,46,42,-343,52.93,-2.07,3.61,16969.109935409106,0.0
226,1900-01-01 21:39:48.200,21.787758,39.068264,5.65,-58,2152,16832,-21,43,-371,55.08,-1.97,4.07,16592.250359731195,0.000469
227,1900-01-01 21:39:48.300,21.787758,39.068268,5.69,774,690,16156,-34,60,-357,57.31,-2.17,3.79,16445.604154302146,0.000413
228,1900-01-01 21:39:48.400,21.78776,39.068272,5.7,722,4,16452,-12,17,-347,59.66,-2.51,3.28,16473.567433922744,0.000469
229,1900-01-01 21:39:48.500,21.78776,39.068275,5.68,478,694,16424,39,-2,-351,61.59,-2.73,3.12,16473.567433922744,0.00031
230,1900-01-01 21:39:48.600,21.787762,39.068279,5.68,170,1502,17154,31,-32,-339,63.9,-2.74,3.26,16693.283200137714,0.000469
231,1900-01-01 21:39:48.700,21.787762,39.068283,5.66,78,1410,16672,-9,-19,-327,65.72,-2.7,3.33,16787.16402493286,0.000413
232,1900-01-01 21:39:48.800,21.787764,39.068287,5.62,644,676,17534,-31,-25,-318,67.68,-2.76,3.16,16791.44520284064,0.000469
233,1900-01-01 21:39:48.900,21.787766,39.068291,5.6,1182,-370,16766,-34,-12,-299,69.58,-2.92,2.66,16778.335912717925,0.000469
234,1900-01-01 21:39:49.000,21.787766,39.068295,5.57,630,-130,16274,-14,10,-275,71.33,-3.12,2.18,16778.8674230414,0.000413
235,1900-01-01 21:39:49.100,21.787767,39.068295,5.56,400,-754,17122,66,52,-272,73.01,-3.27,1.86,16713.900083463464,0.000111
236,1900-01-01 21:39:49.200,21.787767,39.068298,5.59,1864,892,16642,54,1,-267,74.67,-3.71,2.12,16658.45911241493,0.00031
237,1900-01-01 21:39:49.300,21.787769,39.068302,5.7,884,80,16690,46,-20,-218,76.15,-3.77,2.21,16728.444040017588,0.000469
238,1900-01-01 21:39:49.400,21.787769,39.068306,5.74,736,862,16116,27,41,-217,77.47,-3.8,2.36,16728.444040017588,0.000413
239,1900-01-01 21:39:49.500,21.787769,39.06831,6.05,370,1472,16912,-21,-36,-201,78.75,-3.75,2.37,16924.75252404005,0.000413
240,1900-01-01 21:39:49.600,21.787771,39.068314,6.14,46,-340,18114,-48,-20,-172,79.89,-3.42,2.08,16927.978260855605,0.000469
241,1900-01-01 21:39:49.700,21.787771,39.068317,6.25,652,-1354,17212,10,53,-153,80.89,-3.31,1.38,16927.978260855605,0.00031
242,1900-01-01 21:39:49.800,21.787771,39.068321,6.32,942,-570,14638,24,37,-131,81.79,-3.62,1.12,15685.245551154116,0.000413
243,1900-01-01 21:39:49.900,21.787771,39.068325,6.73,750,-118,15608,42,52,-106,82.51,-3.69,1.09,15682.004081111572,0.000413
244,1900-01-01 21:39:50.000,21.787771,39.068329,7.27,626,-88,15668,35,19,-100,83.14,-3.69,1.21,15680.74755871033,0.000413
245,1900-01-01 21:39:50.100,21.787771,39.068333,7.43,274,70,16810,0,-34,-104,83.82,-3.63,1.28,16502.144103115814,0.000413
246,1900-01-01 21:39:50.200,21.787771,39.068336,7.5,126,1042,16494,-41,-3,-75,84.33,-3.4,1.17,16502.144103115814,0.00031
247,1900-01-01 21:39:50.300,21.787771,39.06834,8.23,518,-20,16532,-15,57,-73,84.72,-3.44,1.0,16540.261424778026,0.000413
248,1900-01-01 21:39:50.400,21.787771,39.068344,8.45,1304,-788,16162,-7,52,-96,85.25,-3.53,0.69,16540.12539251139,0.000413
249,1900-01-01 21:39:50.500,21.787771,39.068348,8.62,824,290,16948,-19,-48,-66,85.76,-3.44,0.48,16540.12539251139,0.000413
250,1900-01-01 21:39:50.600,21.787771,39.068352,8.82,62,-160,17126,16,-71,-76,86.18,-3.17,0.41,16213.212636612154,0.000413
251,1900-01-01 21:39:50.700,21.787769,39.068356,9.22,226,216,15290,14,50,-87,86.76,-2.85,0.45,16201.451046125467,0.000469
252,1900-01-01 21:39:50.800,21.787769,39.068359,9.28,702,16,16198,-30,-8,-58,87.18,-2.73,0.4,16200.658011327812,0.00031
253,1900-01-01 21:39:50.900,21.787769,39.068363,9.52,334,-1118,15300,-42,24,-38,87.47,-2.59,0.03,15789.473582105264,0.000413
254,1900-01-01 21:39:51.000,21.787769,39.068367,9.67,246,-1316,17984,17,15,-31,87.7,-2.45,-0.48,15809.495501122103,0.000413
255,1900-01-01 21:39:51.100,21.787769,39.068371,9.81,420,-832,15764,17,-32,-13,87.85,-2.44,-0.65,15789.731979992568,0.000413
256,1900-01-01 21:39:51.200,21.787771,39.068378,9.92,592,-654,15782,12,21,15,87.82,-2.43,-0.7,15799.835315597438,0.000756
257,1900-01-01 21:39:51.300,21.787771,39.068382,10.09,346,86,14324,2,129,7,87.74,-2.37,-0.63,15783.149622302895,0.000413
258,1900-01-01 21:39:51.400,21.787773,39.06839,10.16,104,-666,16554,-3,-15,13,87.69,-2.38,-0.68,15737.658911032478,0.000855
259,1900-01-01 21:39:51.500,21.787775,39.068398,10.28,532,-408,15720,-8,26,22,87.54,-2.33,-0.75,15732.46960906011,0.000855
260,1900-01-01 21:39:51.600,21.787777,39.068401,10.09,1096,-522,15596,-20,54,23,87.35,-2.4,-0.94,15988.737786329477,0.000381
261,1900-01-01 21:39:51.700,21.787779,39.068409,10.16,-82,-1024,15966,-22,12,13,87.24,-2.33,-1.16,15983.38712538741,0.000855
262,1900-01-01 21:39:51.800,21.787781,39.068417,10.23,628,-1078,16862,49,-20,20,87.16,-2.24,-1.31,16470.257071460663,0.000855
263,1900-01-01 21:39:51.900,21.787785,39.068424,10.26,416,-258,16624,22,-25,30,87.01,-2.12,-1.14,16463.10663271061,0.000849
264,1900-01-01 21:39:52.000,21.787786,39.068432,10.38,1382,174,16450,22,-40,28,86.8,-2.06,-0.88,16636.208221827474,0.000833
265,1900-01-01 21:39:52.100,21.78779,39.068439,10.45,604,502,16142,-25,-55,17,86.66,-1.93,-0.8,16635.31953405164,0.000849
266,1900-01-01 21:39:52.300,21.78779,39.068451,10.49,1026,-108,16806,-32,-50,16,86.56,-1.78,-1.01,16817.19703161023,0.001239
267,1900-01-01 21:39:52.400,21.787796,39.068462,10.49,254,-1096,17708,-25,-57,18,86.44,-1.62,-1.27,16836.927748256214,0.001317
268,1900-01-01 21:39:52.500,21.7878,39.068474,10.65,212,-1054,18308,6,-11,20,86.3,-1.65,-1.46,16828.00748751913,0.001316
269,1900-01-01 21:39:52.600,21.787804,39.068485,11.11,1064,-822,15098,41,-5,25,86.1,-1.78,-1.48,17728.88783877883,0.00122
270,1900-01-01 21:39:52.700,21.787811,39.068501,11.44,140,44,16704,3,-63,20,85.97,-1.75,-1.27,16707.199885079488,0.001826
271,1900-01-01 21:39:52.800,21.787819,39.068516,11.75,324,140,18254,13,-90,24,85.82,-1.75,-1.13,16715.647758911407,0.001786
272,1900-01-01 21:39:52.900,21.787827,39.068531,11.91,608,600,16426,-22,-23,18,85.66,-1.87,-1.0,16789.59642159394,0.001786
273,1900-01-01 21:39:53.100,21.787832,39.06855,12.65,1336,474,16980,-36,21,-5,85.6,-2.01,-1.0,16794.718812769686,0.002039
274,1900-01-01 21:39:53.200,21.78784,39.068569,12.9,1080,-658,16778,1,-13,-21,85.75,-2.2,-1.19,16509.94148990238,0.002154
275,1900-01-01 21:39:53.300,21.787848,39.068584,13.12,736,-730,16170,20,12,-9,85.86,-2.24,-1.29,16814.891733222667,0.001786
276,1900-01-01 21:39:53.400,21.787857,39.068607,13.21,946,504,16476,4,-4,-14,85.94,-2.27,-1.07,16505.34434660483,0.002577
277,1900-01-01 21:39:53.600,21.787865,39.06863,13.37,1498,-270,16988,26,-41,-12,86.07,-2.57,-0.88,16503.415040530246,0.002536
278,1900-01-01 21:39:53.700,21.787874,39.068649,13.37,672,-96,15620,10,43,-8,86.11,-2.72,-0.75,16503.415040530246,0.002202
279,1900-01-01 21:39:53.800,21.787884,39.068672,13.58,1274,72,16766,22,-23,-15,86.17,-2.93,-0.57,16433.738101844025,0.002622
280,1900-01-01 21:39:54.000,21.787891,39.068699,13.67,804,-128,16384,-6,6,-24,86.41,-2.77,-0.43,16433.738101844025,0.002894
281,1900-01-01 21:39:54.100,21.787905,39.068722,13.68,1710,342,16132,-31,-5,-25,86.55,-2.79,-0.43,16433.956188331525,0.00284
282,1900-01-01 21:39:54.200,21.787916,39.068748,13.81,1860,-976,16426,1,49,-33,86.76,-3.02,-0.62,16296.34854806438,0.00295
283,1900-01-01 21:39:54.400,21.787926,39.068775,14.06,598,-304,16276,36,45,-31,87.03,-3.04,-0.66,16167.831889279403,0.003001
284,1900-01-01 21:39:54.500,21.787939,39.068802,14.47,218,364,15366,3,4,-22,87.25,-2.87,-0.37,16310.763072278378,0.00314
285,1900-01-01 21:39:54.600,21.787952,39.068829,14.54,1020,1004,14748,-45,-18,-34,87.41,-2.93,-0.24,16310.763072278378,0.00314
286,1900-01-01 21:39:54.700,21.787966,39.068855,14.73,1118,-720,17386,-61,-5,-40,87.64,-2.89,-0.42,15417.381619457956,0.003103
287,1900-01-01 21:39:54.900,21.787973,39.068882,14.76,1526,-2272,17090,30,61,-29,87.93,-2.84,-1.03,15652.606939420666,0.002894
288,1900-01-01 21:39:55.000,21.787983,39.068901,15.01,1528,-576,14522,80,55,-14,88.11,-3.26,-1.06,15652.606939420666,0.002255
289,1900-01-01 21:39:55.100,21.787991,39.06892,15.43,984,900,15602,21,5,-17,88.19,-3.32,-0.41,15665.107979200144,0.002154
290,1900-01-01 21:39:55.200,21.787992,39.068928,15.54,636,1026,15502,-19,38,-20,88.3,-3.43,-0.06,15665.107979200144,0.000833
291,1900-01-01 21:39:55.300,21.787992,39.068935,15.82,1330,452,16168,-87,-10,-6,88.37,-3.65,-0.12,16228.907172080319,0.000723
292,1900-01-01 21:39:55.400,21.787991,39.068939,15.87,1924,-2510,16222,-27,37,-14,88.39,-3.86,-0.65,16222.957806762613,0.000428
293,1900-01-01 21:39:55.500,21.787989,39.068943,16.03,1340,-2324,17278,40,-82,-41,88.59,-3.82,-1.16,16276.775479191203,0.000469
294,1900-01-01 21:39:55.600,21.787985,39.068947,16.26,430,-106,15712,76,-17,-18,88.75,-3.63,-1.02,16232.92690798551,0.000607
295,1900-01-01 21:39:55.700,21.787983,39.068947,16.45,586,1202,16406,25,-43,1,88.75,-3.41,-0.51,16148.983745115356,0.000222
296,1900-01-01 21:39:55.800,21.787979,39.068951,16.55,578,574,15544,-31,31,-14,88.78,-3.4,-0.2,15723.281336922011,0.000607
297,1900-01-01 21:39:55.900,21.787977,39.068954,16.61,1790,-634,16138,-32,16,-18,88.88,-3.49,-0.37,16161.14921656254,0.000381
298,1900-01-01 21:39:56.000,21.787973,39.068958,16.69,786,-1210,15606,-10,30,-11,88.98,-3.51,-0.69,16169.563877853972,0.000607
299,1900-01-01 21:39:56.100,21.787971,39.068962,16.85,588,-818,16274,2,3,3,89.02,-3.44,-0.9,16307.787342248488,0.000469
300,1900-01-01 21:39:56.200,21.787968,39.068962,17.39,836,20,17900,11,-5,3,88.99,-3.45,-0.88,16371.426327598949,0.000334
301,1900-01-01 21:39:56.300,21.787964,39.068966,17.9,1260,-126,17324,-10,-57,4,88.98,-3.52,-0.86,16377.75955373628,0.000607
302,1900-01-01 21:39:56.400,21.78796,39.06897,18.24,952,-260,16348,-8,12,3,88.96,-3.41,-0.9,16388.65705297417,0.000607
303,1900-01-01 21:39:56.500,21.787956,39.068974,18.59,1366,-522,15242,-8,119,6,88.94,-3.46,-1.0,16399.645971788537,0.000607
304,1900-01-01 21:39:56.600,21.787954,39.068977,18.85,1124,-768,15880,11,-22,5,88.92,-3.4,-1.14,16394.906648102635,0.000381
305,1900-01-01 21:39:56.700,21.787951,39.068981,19.11,1334,-322,16602,-2,12,12,88.86,-3.27,-1.15,15933.905986919843,0.000531
306,1900-01-01 21:39:56.800,21.787947,39.068985,19.06,940,-698,16716,7,-24,18,88.77,-3.26,-1.2,16642.50293675804,0.000607
307,1900-01-01 21:39:56.900,21.787945,39.068989,19.08,946,-672,14424,12,34,13,88.67,-3.23,-1.25,16745.842946833105,0.000469
308,1900-01-01 21:39:57.000,21.787941,39.068993,19.11,390,-308,17086,-5,20,18,88.57,-3.16,-1.21,16755.88971078528,0.000607
309,1900-01-01 21:39:57.100,21.787937,39.068996,19.24,1250,-274,16750,-2,36,21,88.45,-3.21,-1.31,16208.89879047926,0.000542
310,1900-01-01 21:39:57.200,21.787933,39.069,19.31,506,-744,15594,2,-29,26,88.24,-3.34,-1.49,16733.905820220214,0.000607
311,1900-01-01 21:39:57.300,21.787931,39.069004,19.35,696,-886,16180,25,74,23,88.11,-3.3,-1.57,16232.137628790608,0.000469
312,1900-01-01 21:39:57.400,21.787928,39.069008,19.38,1066,-618,16708,3,-18,28,87.94,-3.34,-1.56,15648.090234913652,0.000531
313,1900-01-01 21:39:57.500,21.787926,39.069012,19.42,1216,-762,15416,10,6,28,87.78,-3.33,-1.51,15550.850008922342,0.000469
314,1900-01-01 21:39:57.600,21.787922,39.069016,19.46,1176,-346,15494,1,-21,20,87.6,-3.29,-1.47,15542.417057845283,0.000607
315,1900-01-01 21:39:57.800,21.787916,39.069023,19.55,1620,-336,14760,5,85,22,87.43,-3.2,-1.49,15542.197656702221,0.000984
316,1900-01-01 21:39:57.900,21.787912,39.069027,19.82,512,-260,16276,4,39,14,87.26,-3.06,-1.42,15513.715480180756,0.000607
317,1900-01-01 21:39:58.000,21.787909,39.069031,19.94,706,-272,16682,1,-80,12,87.18,-3.11,-1.36,16294.769344792825,0.000531
318,1900-01-01 21:39:58.200,21.787901,39.069038,20.67,-86,-702,14868,17,15,8,87.09,-2.96,-1.29,16295.150444227264,0.001146
319,1900-01-01 21:39:58.300,21.787899,39.069042,21.38,776,-452,17276,2,7,8,87.04,-2.81,-1.19,16044.68684642988,0.000469
320,1900-01-01 21:39:58.400,21.787895,39.06905,21.49,1344,-354,15786,-2,1,7,86.95,-2.74,-1.2,16044.68684642988,0.000938
321,1900-01-01 21:39:58.600,21.787888,39.069057,21.8,1214,-80,16022,5,90,6,86.9,-2.75,-1.2,16561.706796100454,0.001062
322,1900-01-01 21:39:58.700,21.787884,39.069061,21.82,220,234,18782,-5,-87,6,86.81,-2.73,-1.06,16561.583136886402,0.000607
323,1900-01-01 21:39:58.900,21.787876,39.069069,21.9,1084,48,16526,2,-20,8,86.74,-2.65,-1.08,17213.03041303303,0.001214
324,1900-01-01 21:39:59.100,21.787868,39.069077,22.24,764,120,17348,6,14,4,86.68,-2.53,-1.17,17213.381771168617,0.001214
325,1900-01-01 21:39:59.200,21.787865,39.069084,22.58,670,-436,17196,-19,-83,2,86.65,-2.64,-1.17,16543.720137865002,0.000796
326,1900-01-01 21:39:59.400,21.787855,39.069092,22.93,782,212,15836,-41,20,6,86.59,-2.6,-1.18,16243.68098677144,0.001385
327,1900-01-01 21:39:59.600,21.787848,39.069099,23.04,280,-702,15680,-29,33,3,86.54,-2.6,-1.39,15844.475125418323,0.001062
328,1900-01-01 21:39:59.700,21.787842,39.069103,23.43,240,-1104,16224,-10,-24,2,86.52,-2.4,-1.59,15853.368727182245,0.000785
329,1900-01-01 21:39:59.800,21.787838,39.069111,23.62,40,-300,14626,-33,40,8,86.46,-2.38,-1.59,15723.861612212186,0.000938
330,1900-01-01 21:40:00.000,21.78783,39.069118,23.64,-48,-906,15994,3,-30,5,86.41,-2.34,-1.76,16017.423638026185,0.001146
331,1900-01-01 21:40:00.100,21.787825,39.069122,23.57,940,-832,15700,7,-1,5,86.38,-2.3,-1.82,16013.22428494649,0.000693
332,1900-01-01 21:40:00.300,21.787817,39.06913,23.64,510,-460,16646,-6,-1,9,86.33,-2.23,-1.74,16268.119620902718,0.001214
333,1900-01-01 21:40:00.400,21.787811,39.069138,23.71,1308,-596,16230,11,-19,8,86.25,-2.26,-1.73,16381.462205798358,0.001062
334,1900-01-01 21:40:00.500,21.787807,39.069141,23.73,1112,-434,16486,8,18,7,86.21,-2.27,-1.74,16499.595510193576,0.000542
335,1900-01-01 21:40:00.700,21.7878,39.069149,23.79,478,-416,16348,-3,9,3,86.15,-2.18,-1.67,16360.743992862916,0.001135
336,1900-01-01 21:40:00.800,21.787796,39.069153,23.91,34,26,16678,-4,-25,8,86.11,-2.04,-1.71,16498.173717111844,0.000607
337,1900-01-01 21:40:00.900,21.78779,39.06916,24.08,236,-744,15386,12,16,8,86.06,-2.04,-1.77,16689.642536615338,0.000984
338,1900-01-01 21:40:01.100,21.787783,39.069168,24.16,1208,-330,17114,-12,-68,6,86.0,-2.08,-1.78,16692.667851484974,0.001135
339,1900-01-01 21:40:01.200,21.787777,39.069172,24.7,574,-400,17360,-5,-67,6,85.96,-2.11,-1.83,16159.152576790653,0.000785
340,1900-01-01 21:40:01.400,21.787769,39.069183,24.84,822,-740,15248,16,80,6,85.92,-2.01,-1.89,16168.281293940923,0.001443
341,1900-01-01 21:40:01.500,21.787766,39.069187,24.86,54,234,16144,-5,29,10,85.85,-2.01,-1.82,16166.92240347556,0.000531
342,1900-01-01 21:40:01.600,21.787762,39.069191,24.93,904,-52,15140,8,17,10,85.8,-2.07,-1.88,15749.474911881984,0.000607
343,1900-01-01 21:40:01.800,21.787752,39.069202,25.19,762,-474,16754,-6,4,6,85.73,-1.79,-1.79,15747.590418854563,0.001589
344,1900-01-01 21:40:01.900,21.787748,39.069206,25.28,800,-644,15722,-5,13,11,85.65,-1.73,-1.73,15532.89078053406,0.000607
345,1900-01-01 21:40:02.100,21.787739,39.069218,25.62,538,-934,15110,12,93,20,85.5,-1.64,-1.82,15528.477323936175,0.001593
346,1900-01-01 21:40:02.200,21.787733,39.069221,25.6,244,-504,15506,-2,-51,13,85.33,-1.54,-1.77,15438.82236441627,0.000736
347,1900-01-01 21:40:02.400,21.787724,39.069233,25.82,666,-126,13868,8,89,18,85.2,-1.41,-1.84,15133.443097986657,0.001593
348,1900-01-01 21:40:02.500,21.78772,39.069237,25.88,404,-884,15416,5,-34,18,85.05,-1.23,-1.87,15435.840501896875,0.000607
349,1900-01-01 21:40:02.700,21.78771,39.069248,25.85,510,-670,14688,-2,100,19,84.89,-1.26,-1.86,15441.107343710813,0.001589
350,1900-01-01 21:40:02.800,21.787706,39.069252,25.83,220,-798,16696,-4,-9,19,84.75,-1.23,-1.88,16084.102088708589,0.000607
351,1900-01-01 21:40:03.000,21.787697,39.069263,25.91,-798,-782,16200,-8,30,19,84.57,-1.31,-1.86,16226.400833210057,0.001514
352,1900-01-01 21:40:03.100,21.787693,39.069267,25.71,808,-772,16060,-13,-32,15,84.45,-1.31,-1.9,16229.112236964782,0.000607
353,1900-01-01 21:40:03.300,21.787683,39.069279,25.77,590,-70,16510,18,26,9,84.31,-1.26,-1.95,16211.925117024197,0.001665
354,1900-01-01 21:40:03.400,21.78768,39.069283,25.61,1246,-196,15300,-2,16,9,84.25,-1.31,-1.9,16221.91776578836,0.000531
355,1900-01-01 21:40:03.500,21.787674,39.069286,25.66,-114,-36,17552,-12,-12,8,84.18,-1.16,-1.84,16515.263848936836,0.000736
356,1900-01-01 21:40:03.700,21.787666,39.069298,25.67,368,-730,16210,-10,-32,-6,84.17,-1.18,-1.87,16212.118677088445,0.001525
357,1900-01-01 21:40:03.800,21.787661,39.069302,25.9,174,-872,17122,9,-68,-15,84.26,-1.01,-1.82,16722.069369548735,0.000693
358,1900-01-01 21:40:03.900,21.787655,39.069305,26.1,-126,338,14952,0,77,-29,84.46,-1.15,-1.53,16355.524204378165,0.000736
359,1900-01-01 21:40:04.000,21.787651,39.069313,26.23,32,1088,16722,7,-80,-45,84.74,-1.15,-1.18,16741.695374125047,0.000938
360,1900-01-01 21:40:04.200,21.787642,39.069324,26.7,-392,802,16352,-3,-58,-65,85.31,-1.1,-0.62,16374.045926404384,0.001514
361,1900-01-01 21:40:04.300,21.787638,39.069328,26.82,-138,1272,18178,22,-25,-82,86.23,-0.89,-0.04,16373.592397516191,0.000607
362,1900-01-01 21:40:04.500,21.787628,39.06934,26.86,142,840,15140,3,39,-78,86.95,-0.85,0.37,16374.176864807587,0.001665
363,1900-01-01 21:40:04.700,21.787619,39.069347,26.96,238,258,16250,25,-5,-76,87.73,-0.8,0.63,16272.315876973382,0.001234
364,1900-01-01 21:40:04.900,21.787609,39.069359,26.74,560,1266,18818,20,-77,-75,88.56,-0.85,1.04,16252.66833476891,0.001665
365,1900-01-01 21:40:05.000,21.787605,39.069363,26.65,-320,-124,16066,10,-12,-75,89.48,-0.8,1.31,16253.255304707423,0.000607
366,1900-01-01 21:40:05.200,21.787596,39.069374,26.68,-288,228,16698,-14,22,-63,90.34,-0.57,1.37,16069.07514451283,0.001514
367,1900-01-01 21:40:05.400,21.787584,39.069386,27.0,-232,-734,14910,7,97,-46,90.81,-0.59,1.14,16069.664962282195,0.001821
368,1900-01-01 21:40:05.600,21.787575,39.069393,27.08,-404,126,15760,2,-3,-29,91.24,-0.31,0.85,15762.687207452922,0.001234
369,1900-01-01 21:40:05.800,21.787565,39.069405,27.01,-504,-478,17782,10,-128,-23,91.51,-0.01,0.6,15772.422134852972,0.001665
370,1900-01-01 21:40:06.000,21.787554,39.069412,26.77,130,-42,15704,18,-21,-18,91.69,0.14,0.63,16102.711945507812,0.001421
371,1900-01-01 21:40:06.100,21.78755,39.069416,26.74,-720,-586,16096,23,-19,-17,91.87,0.25,0.52,16366.746897291472,0.000607
372,1900-01-01 21:40:06.300,21.787539,39.069427,26.56,-454,-100,16388,-1,-19,-20,92.04,0.42,0.49,16368.149070679921,0.001669
373,1900-01-01 21:40:06.400,21.787535,39.069431,26.43,-760,-614,16352,-13,77,-11,92.2,0.62,0.32,16404.113630428194,0.000607
374,1900-01-01 21:40:06.500,21.787529,39.069435,26.45,-804,56,16778,-18,-65,-8,92.24,0.71,0.11,16784.43922208901,0.000785
375,1900-01-01 21:40:06.700,21.787519,39.069447,26.29,50,-36,17018,0,-40,1,92.23,0.81,-0.23,17035.746300059767,0.001665
376,1900-01-01 21:40:06.800,21.787514,39.06945,26.07,-186,-298,17830,-13,-162,1,92.22,0.94,-0.29,17019.177300915577,0.000636
377,1900-01-01 21:40:07.000,21.787504,39.069458,25.56,-718,-524,17046,-1,-71,3,92.2,0.99,-0.43,17019.45369275994,0.001385
378,1900-01-01 21:40:07.100,21.7875,39.069462,25.56,112,-74,14652,7,50,3,92.19,1.05,-0.54,17055.644813374838,0.000607
379,1900-01-01 21:40:07.300,21.787489,39.069469,25.38,-520,-122,16650,0,-77,0,92.16,1.0,-0.62,17057.274577141565,0.001421
380,1900-01-01 21:40:07.400,21.787485,39.069477,25.35,-490,-380,17192,1,36,4,92.14,1.03,-0.78,17203.17889228616,0.000938
381,1900-01-01 21:40:07.600,21.787476,39.069485,25.3,-252,-828,17732,-4,13,2,92.13,1.03,-0.92,17753.78337143945,0.001298
382,1900-01-01 21:40:07.800,21.787466,39.069492,25.33,-574,-928,18242,-14,-98,14,92.01,0.94,-1.16,17748.809199492793,0.001326
383,1900-01-01 21:40:07.900,21.78746,39.069496,25.24,92,-730,18282,14,-78,18,91.88,0.88,-1.38,18038.8767943018,0.000785
384,1900-01-01 21:40:08.100,21.787451,39.069504,24.67,60,2,17626,7,5,14,91.7,0.89,-1.41,18038.8767943018,0.001298
385,1900-01-01 21:40:08.200,21.787447,39.069508,24.53,66,372,18024,-2,-58,17,91.53,0.82,-1.46,17628.75809579336,0.000607
386,1900-01-01 21:40:08.400,21.787437,39.069519,24.79,-98,-1064,17562,-10,-16,13,91.4,0.78,-1.53,17564.939054833067,0.001589
387,1900-01-01 21:40:08.600,21.787428,39.069527,24.43,-422,-306,16658,10,-38,15,91.23,0.72,-1.61,17205.30743695096,0.001298
388,1900-01-01 21:40:08.700,21.787424,39.06953,24.39,-386,-1252,16320,8,36,16,91.12,0.8,-1.7,17005.13557723078,0.000542
389,1900-01-01 21:40:08.900,21.787415,39.069538,24.24,-142,-104,17202,5,32,11,90.97,0.79,-1.7,16664.317087717696,0.001298
390,1900-01-01 21:40:09.000,21.787411,39.069542,24.08,-486,-80,16998,3,-55,10,90.87,0.75,-1.72,17000.40211289133,0.000607
391,1900-01-01 21:40:09.200,21.787401,39.069553,23.96,284,-248,16306,-10,36,1,90.79,0.87,-1.65,17000.40211289133,0.001589
392,1900-01-01 21:40:09.400,21.787394,39.069561,23.92,-142,-786,17112,8,-37,8,90.74,0.87,-1.79,17001.647214314264,0.001135
393,1900-01-01 21:40:09.500,21.787388,39.069565,23.72,-462,-250,16938,-1,-49,8,90.68,0.98,-1.74,16946.614647179536,0.000785
394,1900-01-01 21:40:09.600,21.787384,39.069569,23.68,-248,-480,18120,-15,-14,6,90.6,1.02,-1.64,17120.52709468958,0.000607
395,1900-01-01 21:40:09.800,21.787376,39.06958,23.44,-740,-1040,15634,-1,115,6,90.56,1.07,-1.79,16948.83335218091,0.001443
396,1900-01-01 21:40:10.000,21.787367,39.069588,23.11,-92,-392,17760,18,-126,6,90.49,1.04,-1.84,17781.88966336255,0.001298
397,1900-01-01 21:40:10.200,21.787357,39.069595,23.02,-758,-102,16822,-3,-46,9,90.42,1.23,-1.76,16848.048789103148,0.001326
398,1900-01-01 21:40:10.400,21.78735,39.069603,22.84,-1556,-910,18626,-8,-105,7,90.35,1.64,-1.78,17794.276832734733,0.001135
399,1900-01-01 21:40:10.600,21.78734,39.069611,22.71,-1032,-550,16316,17,20,4,90.29,1.89,-1.88,18032.953390945146,0.001385
400,1900-01-01 21:40:10.700,21.787336,39.069614,22.66,-1532,-252,17964,5,-77,9,90.25,2.14,-1.83,18035.665665563887,0.000542
401,1900-01-01 21:40:10.900,21.787327,39.069622,22.57,-2266,-528,17960,-1,-38,5,90.19,2.75,-1.81,16673.85246426272,0.001298
402,1900-01-01 21:40:11.100,21.787319,39.06963,22.37,-2708,-974,16510,10,-16,7,90.15,3.37,-1.94,16691.138846705457,0.001214
403,1900-01-01 21:40:11.200,21.787313,39.069633,22.07,-2462,-840,15618,21,29,4,90.1,3.96,-1.99,16691.138846705457,0.000736
404,1900-01-01 21:40:11.400,21.787306,39.069641,21.95,-2304,-1058,15878,12,38,9,90.06,4.64,-1.98,16066.265900949107,0.001135
405,1900-01-01 21:40:11.500,21.787302,39.069645,21.77,-2176,-678,16510,3,-12,3,90.03,5.05,-1.94,15893.525851742275,0.000607
406,1900-01-01 21:40:11.700,21.787294,39.069653,21.33,-2264,-212,15212,-10,43,5,89.98,5.57,-1.82,16051.228364209388,0.001214
407,1900-01-01 21:40:11.800,21.787291,39.069656,20.87,-1976,-782,15712,-20,0,6,89.91,6.04,-1.9,16176.112017416299,0.000455
408,1900-01-01 21:40:12.000,21.787281,39.069664,20.1,-2218,-978,17546,4,9,12,89.82,6.32,-2.05,16192.470719442415,0.001385
409,1900-01-01 21:40:12.200,21.787275,39.069668,18.8,-2002,-1072,16010,9,10,29,89.59,6.55,-2.2,16309.126034217774,0.000785
410,1900-01-01 21:40:12.300,21.787271,39.069672,18.04,-3184,-1232,16400,-16,10,46,89.27,6.75,-2.38,16604.3253401034,0.000607
411,1900-01-01 21:40:12.500,21.787266,39.069675,16.83,-2286,-1236,16122,-9,-24,68,88.54,6.89,-2.93,16604.622609382004,0.000636
412,1900-01-01 21:40:12.600,21.787262,39.069679,16.33,-2556,-1582,16548,-1,10,83,88.15,7.14,-3.2,16754.382829576265,0.000607
413,1900-01-01 21:40:12.800,21.787258,39.069683,14.54,-2188,-2026,17290,7,-13,97,87.34,7.31,-3.49,16772.898854998202,0.000607
414,1900-01-01 21:40:12.900,21.787256,39.069683,13.88,-2312,-1234,16628,-13,-19,109,86.32,7.46,-3.67,16760.00334128845,0.000222
415,1900-01-01 21:40:13.000,21.787252,39.069687,13.69,-2042,-1506,15954,2,-29,121,85.6,7.51,-3.86,16818.492084607347,0.000607
416,1900-01-01 21:40:13.200,21.787249,39.069691,13.25,-1380,-1508,15506,-4,2,130,84.6,7.32,-4.11,16236.997875223116,0.000531
417,1900-01-01 21:40:13.300,21.787247,39.069695,12.88,-352,-1416,16626,-20,-16,153,83.0,6.59,-4.38,16183.527551186113,0.000469
418,1900-01-01 21:40:13.400,21.787243,39.069695,12.43,-128,-1724,16108,-14,-18,160,82.13,6.13,-4.64,16442.420259803603,0.000445
419,1900-01-01 21:40:13.600,21.787239,39.069698,11.89,-406,-1986,16348,-19,-24,183,80.84,5.57,-5.04,16725.823626954818,0.000542
420,1900-01-01 21:40:13.700,21.787239,39.069702,11.2,-322,-1796,16714,-11,-10,209,79.48,5.19,-5.4,16449.51075260295,0.000413
421,1900-01-01 21:40:13.800,21.787237,39.069702,10.04,-234,-2222,17192,5,-11,226,77.85,4.73,-5.75,16813.495650815745,0.000222
422,1900-01-01 21:40:13.900,21.787235,39.069706,9.84,-604,-1340,16128,-4,-31,254,75.64,4.32,-6.0,16813.495650815745,0.000469
423,1900-01-01 21:40:14.000,21.787235,39.069706,9.53,-332,-1556,17520,-16,-65,269,73.85,4.06,-6.18,16272.022861340873,0.0
424,1900-01-01 21:40:14.100,21.787233,39.069706,9.32,-500,-2066,16136,-29,-4,272,72.36,3.77,-6.39,16264.708420380612,0.000222
425,1900-01-01 21:40:14.300,21.78723,39.06971,9.13,-374,-2326,14608,-10,43,285,70.29,3.41,-6.77,15713.546385205345,0.000531
426,1900-01-01 21:40:14.400,21.787228,39.069714,9.05,-400,-2150,15340,13,-22,310,67.9,3.08,-7.05,15716.283148378308,0.000469
427,1900-01-01 21:40:14.500,21.787228,39.069714,9.03,-496,-1416,15572,-19,17,309,65.06,2.72,-6.94,15464.492102878776,0.0
428,1900-01-01 21:40:14.600,21.787226,39.069717,8.96,-866,-1770,16406,-13,-35,319,63.13,2.51,-7.02,15694.840426076335,0.000381
429,1900-01-01 21:40:14.800,21.787224,39.069721,8.76,-490,-1896,15304,-6,31,327,60.74,2.27,-7.24,15894.858917272591,0.000469
430,1900-01-01 21:40:14.900,21.787222,39.069721,8.78,-562,-2112,15786,12,-17,331,58.33,2.08,-7.28,16512.1087690216,0.000222
431,1900-01-01 21:40:15.000,21.787222,39.069725,8.77,-626,-1058,16674,-6,-8,335,55.1,1.92,-7.02,16582.33867703829,0.000413
432,1900-01-01 21:40:15.100,21.78722,39.069725,8.74,-600,-1028,16464,-27,-3,334,53.06,1.73,-6.89,16559.641783565246,0.000222
433,1900-01-01 21:40:15.200,21.787218,39.069729,8.7,-334,-1982,16480,-36,-17,333,51.02,1.54,-7.01,16576.88137135571,0.000469
434,1900-01-01 21:40:15.400,21.787216,39.069733,8.61,-448,-1686,16298,-27,-5,333,48.57,1.37,-7.22,16592.145732243313,0.000469
435,1900-01-01 21:40:15.500,21.787216,39.069733,8.49,-1134,-1990,17564,-28,-88,344,46.7,1.35,-7.36,16603.27124394467,0.0
436,1900-01-01 21:40:15.600,21.787216,39.069736,8.46,-854,-1830,16512,-5,-44,348,44.57,1.35,-7.48,16421.083277299338,0.00031
437,1900-01-01 21:40:15.700,21.787214,39.069736,8.33,-1214,-1816,16152,7,-50,354,42.67,1.3,-7.47,16633.49981212613,0.000222
438,1900-01-01 21:40:15.800,21.787214,39.06974,8.22,-792,-1776,16288,-6,-64,360,40.51,1.23,-7.4,16628.06495055874,0.000413
439,1900-01-01 21:40:15.900,21.787212,39.069744,8.1,-544,-1652,16648,1,-56,360,38.29,1.19,-7.32,16390.70809940803,0.000469
440,1900-01-01 21:40:16.000,21.787212,39.069744,8.13,-832,-1408,17026,-16,-39,361,36.1,1.21,-7.23,16724.682239133872,0.0
441,1900-01-01 21:40:16.100,21.787212,39.069748,8.17,-100,-1174,16124,-35,18,377,33.86,1.1,-7.25,16721.675274923862,0.000413
442,1900-01-01 21:40:16.200,21.787212,39.069748,7.89,-442,-1768,16634,-31,-36,377,31.53,1.04,-7.43,16725.173123169756,0.0
443,1900-01-01 21:40:16.300,21.787212,39.069752,7.77,-276,-1722,15494,-40,3,383,29.22,0.89,-7.58,16271.623029065047,0.000413
444,1900-01-01 21:40:16.400,21.787212,39.069752,7.53,-204,-2132,16894,-22,-35,394,26.82,0.7,-7.79,16312.58520284262,0.0
445,1900-01-01 21:40:16.500,21.787212,39.069756,7.2,-140,-2428,16174,-9,-38,405,24.36,0.44,-7.98,16264.317384999593,0.000413
446,1900-01-01 21:40:16.600,21.787212,39.069756,6.92,144,-2112,15968,3,-21,420,21.83,0.13,-8.06,16265.13252328428,0.0
447,1900-01-01 21:40:16.700,21.787212,39.069759,6.81,242,-2006,16126,-3,-46,435,19.21,-0.17,-8.0,16108.497260762719,0.00031
448,1900-01-01 21:40:16.800,21.787214,39.069759,6.64,760,-2118,15796,-15,-29,437,16.52,-0.43,-7.93,16108.497260762719,0.000222
449,1900-01-01 21:40:16.900,21.787214,39.069763,6.67,-164,-2232,15636,-16,-32,444,13.56,-0.6,-7.97,16264.744080372122,0.000413
450,1900-01-01 21:40:17.000,21.787214,39.069763,6.37,90,-2588,16640,-10,-56,456,11.07,-0.74,-8.08,15945.745137810274,0.0
451,1900-01-01 21:40:17.100,21.787216,39.069763,6.33,-462,-1908,17480,-22,-115,470,8.24,-0.82,-8.16,16748.22330875726,0.000222
452,1900-01-01 21:40:17.200,21.787216,39.069767,6.3,-166,-2174,15744,-22,17,482,5.33,-0.98,-8.25,16799.742498026568,0.000413
453,1900-01-01 21:40:17.300,21.787218,39.069767,6.33,-248,-3100,16598,-32,-26,490,2.37,-1.18,-8.41,16761.38061139356,0.000222
454,1900-01-01 21:40:17.400,21.78722,39.069771,6.39,-200,-3120,16256,-25,-48,495,-0.63,-1.35,-8.63,16788.80162489271,0.000469
455,1900-01-01 21:40:17.500,21.787222,39.069771,6.53,26,-2326,17050,-19,-82,497,-3.64,-1.39,-8.75,17003.01020407857,0.000222
456,1900-01-01 21:40:17.600,21.787224,39.069771,6.67,-788,-2516,16814,-24,-68,504,-6.66,-1.31,-8.81,17010.956116573812,0.000222
457,1900-01-01 21:40:17.700,21.787226,39.069775,6.78,-862,-2448,17142,-28,-57,502,-9.99,-1.32,-8.93,17019.45345773477,0.000469
458,1900-01-01 21:40:17.800,21.78723,39.069775,7.06,-576,-2994,15992,-15,-42,508,-12.73,-1.37,-9.04,17019.45345773477,0.000445
459,1900-01-01 21:40:17.900,21.787231,39.069778,7.63,-1012,-2604,16576,-23,-64,505,-15.77,-1.35,-9.09,16771.080346835144,0.000329
460,1900-01-01 21:40:18.000,21.787235,39.069778,8.28,-574,-2164,16940,-27,-37,502,-19.11,-1.37,-9.09,16305.209964916123,0.000445
461,1900-01-01 21:40:18.100,21.787239,39.069778,8.69,-716,-2428,15924,-49,-42,504,-22.44,-1.43,-9.21,16311.228647775128,0.000445
462,1900-01-01 21:40:18.200,21.787243,39.069782,8.96,-842,-3354,16080,-39,-33,506,-25.46,-1.52,-9.46,16322.4103612181,0.000607
463,1900-01-01 21:40:18.300,21.787245,39.069782,9.37,-1054,-2882,15852,-19,18,498,-28.47,-1.57,-9.66,16323.117104278826,0.000222
464,1900-01-01 21:40:18.400,21.787249,39.069782,9.71,-514,-3048,16050,-28,-41,500,-31.76,-1.71,-9.75,16361.876298273373,0.000445
465,1900-01-01 21:40:18.500,21.787252,39.069782,9.94,-500,-2886,16518,-18,-63,496,-35.08,-1.88,-9.79,16775.676439416682,0.000334
466,1900-01-01 21:40:18.600,21.787254,39.069782,9.92,-6,-2980,16626,-12,-20,489,-38.36,-2.08,-9.76,16809.59940034265,0.000222
467,1900-01-01 21:40:18.700,21.787258,39.069786,9.99,290,-2444,16664,-11,-54,487,-41.62,-2.3,-9.71,16757.470692201732,0.000607
468,1900-01-01 21:40:18.800,21.787262,39.069786,10.07,436,-2302,16560,-20,-12,472,-45.73,-2.57,-9.57,16786.440480340076,0.000445
469,1900-01-01 21:40:18.900,21.787264,39.069786,10.19,98,-2188,16578,-16,-10,458,-48.57,-2.74,-9.45,16808.85909275225,0.000222
470,1900-01-01 21:40:19.100,21.78727,39.069786,10.03,248,-2056,16818,-24,-9,436,-51.57,-2.89,-9.3,16708.080200908782,0.000667
471,1900-01-01 21:40:19.200,21.787271,39.069786,10.02,138,-1928,17336,-31,-59,427,-53.95,-3.01,-9.24,16945.0218058284,0.000111
472,1900-01-01 21:40:19.300,21.787275,39.069786,10.06,314,-2066,14850,-28,2,410,-56.77,-3.15,-9.17,16945.0218058284,0.000445
473,1900-01-01 21:40:19.400,21.787277,39.06979,10.13,746,-1968,17534,-21,-108,386,-59.2,-3.22,-9.07,16153.227665082914,0.000469
474,1900-01-01 21:40:19.500,21.787281,39.06979,10.23,114,-2102,16018,-18,11,370,-61.75,-3.22,-8.93,15855.603173641803,0.000445
475,1900-01-01 21:40:19.600,21.787283,39.06979,10.21,638,-2062,15708,3,45,360,-63.98,-3.32,-8.77,15847.56864632553,0.000222
476,1900-01-01 21:40:19.700,21.787287,39.06979,10.36,642,-1998,13904,-4,60,339,-66.12,-3.48,-8.54,15847.56864632553,0.000445
477,1900-01-01 21:40:19.800,21.787289,39.06979,10.41,1208,-1100,15150,-13,4,315,-67.93,-3.58,-8.26,15780.76968972046,0.000222
478,1900-01-01 21:40:19.900,21.787292,39.06979,10.46,982,-1152,16210,-17,-10,291,-69.82,-3.66,-7.96,15535.92198744574,0.000334
479,1900-01-01 21:40:20.000,21.787294,39.069786,10.53,1048,-990,16982,-29,-37,268,-71.39,-3.78,-7.72,16276.92919441502,0.000469
480,1900-01-01 21:40:20.100,21.787296,39.069786,10.63,742,-1350,15462,-18,-8,246,-72.98,-3.85,-7.56,16889.97075189889,0.000222
481,1900-01-01 21:40:20.200,21.7873,39.069786,10.5,884,-716,17218,-19,-55,222,-74.44,-3.9,-7.32,16876.749805575717,0.000445
482,1900-01-01 21:40:20.300,21.787302,39.069786,10.4,1126,-1334,16822,-4,-29,199,-75.75,-3.98,-7.04,16870.550317046567,0.000222
483,1900-01-01 21:40:20.400,21.787306,39.069786,10.49,930,-878,15562,-18,-30,169,-76.89,-4.02,-6.74,16870.550317046567,0.000445
484,1900-01-01 21:40:20.500,21.787308,39.069786,10.47,1174,-708,17230,2,-3,156,-77.98,-4.0,-6.5,16245.594849066008,0.000222
485,1900-01-01 21:40:20.600,21.787312,39.069786,10.58,718,-1594,15586,-11,25,143,-78.82,-4.0,-6.31,16213.723693217422,0.000445
486,1900-01-01 21:40:20.700,21.787313,39.069786,10.43,916,-1384,16164,-4,6,121,-79.71,-4.04,-6.1,16362.389678772475,0.000111
487,1900-01-01 21:40:20.800,21.787315,39.069782,10.54,430,-816,16816,-13,-8,116,-80.52,-3.91,-5.88,16371.87845056272,0.000469
488,1900-01-01 21:40:20.900,21.787319,39.069782,10.39,1016,-1758,16278,-3,9,108,-81.28,-3.94,-5.76,16791.618980908304,0.000445
489,1900-01-01 21:40:21.000,21.787321,39.069782,10.43,976,-1492,16706,-1,-21,99,-81.92,-4.0,-5.63,16754.368624331983,0.000222
490,1900-01-01 21:40:21.100,21.787323,39.069782,10.56,1348,-800,16820,19,-34,99,-82.65,-3.96,-5.41,16764.456925292867,0.000222
491,1900-01-01 21:40:21.200,21.787327,39.069778,10.63,414,-606,14976,-2,-1,83,-83.28,-3.79,-5.11,16764.456925292867,0.000607
492,1900-01-01 21:40:21.300,21.787329,39.069778,10.87,490,-1002,17564,-17,-18,78,-83.98,-3.51,-4.91,16559.60712094342,0.000222
493,1900-01-01 21:40:21.400,21.787331,39.069778,11.16,1084,-1342,16522,-19,-10,80,-84.46,-3.43,-4.93,16480.097329809676,0.000222
494,1900-01-01 21:40:21.500,21.787334,39.069775,11.13,4,-1554,16424,0,0,74,-84.94,-3.38,-4.97,16482.18165171104,0.000455
495,1900-01-01 21:40:21.700,21.78734,39.069771,12.17,402,-1294,15268,-2,53,74,-85.39,-3.37,-4.89,16499.67963325349,0.000785
496,1900-01-01 21:40:21.800,21.787342,39.069767,12.75,904,-908,16384,20,-4,66,-85.91,-3.41,-4.68,16463.96792999792,0.000469
497,1900-01-01 21:40:21.900,21.787344,39.069763,13.29,912,-658,16640,18,-14,46,-86.3,-3.36,-4.32,16677.523197405542,0.000469
498,1900-01-01 21:40:22.000,21.787348,39.069763,13.44,700,70,17142,12,-10,27,-86.57,-3.31,-3.88,16670.775386885878,0.000445
499,1900-01-01 21:40:22.100,21.78735,39.069759,13.51,1654,-2,16776,7,-34,20,-86.76,-3.31,-3.52,16790.796169330388,0.000469
500,1900-01-01 21:40:22.200,21.787354,39.069756,13.56,296,-456,15948,-20,17,12,-86.91,-3.13,-3.27,16788.86357083171,0.000542
501,1900-01-01 21:40:22.300,21.787355,39.069756,13.6,652,-692,16770,-1,-2,14,-86.99,-3.05,-3.28,16495.750968052347,0.000111
502,1900-01-01 21:40:22.500,21.787363,39.069752,14.27,196,-1078,15102,6,28,15,-87.07,-2.99,-3.27,15962.210999733088,0.000981
503,1900-01-01 21:40:22.600,21.787365,39.069748,14.9,374,-560,16482,19,-37,12,-87.17,-2.91,-3.11,16504.394202757034,0.000469
504,1900-01-01 21:40:22.700,21.787369,39.069744,15.43,872,-486,15518,2,9,8,-87.24,-2.83,-2.86,16511.99394379734,0.000607
505,1900-01-01 21:40:22.800,21.787373,39.069744,15.9,868,-282,16604,3,-20,6,-87.29,-2.77,-2.68,16507.24907427037,0.000445
506,1900-01-01 21:40:22.900,21.787376,39.06974,16.57,1230,18,16986,-5,-36,-2,-87.32,-2.77,-2.53,16575.31815682583,0.000531
507,1900-01-01 21:40:23.000,21.78738,39.069736,17.05,732,-52,16134,-5,-41,-9,-87.29,-2.68,-2.3,16573.875467132002,0.000607
508,1900-01-01 21:40:23.100,21.787384,39.069733,17.66,570,-138,16552,5,-17,-2,-87.26,-2.59,-2.26,16568.259775848517,0.000542
509,1900-01-01 21:40:23.300,21.787392,39.069729,17.73,840,-684,16152,-4,5,-5,-87.23,-2.57,-2.2,16167.235137771702,0.000981
510,1900-01-01 21:40:23.400,21.787395,39.069725,17.88,688,36,16560,20,-16,-7,-87.19,-2.54,-2.12,16575.930139814176,0.000531
511,1900-01-01 21:40:23.500,21.787399,39.069721,18.0,532,-926,16102,12,-1,-2,-87.16,-2.46,-2.02,16582.65599956774,0.000607
512,1900-01-01 21:40:23.600,21.787403,39.069717,18.11,170,-704,17506,-17,-24,-3,-87.13,-2.28,-1.86,16574.707478565044,0.000607
513,1900-01-01 21:40:23.700,21.787407,39.069714,18.19,-50,-452,17414,0,-46,-5,-87.12,-2.17,-1.87,16114.37147393593,0.000542
514,1900-01-01 21:40:23.900,21.787415,39.06971,18.34,600,-390,15886,8,24,-6,-87.06,-2.21,-1.85,17168.792852148923,0.000981
515,1900-01-01 21:40:24.000,21.787418,39.069706,18.53,-84,-608,15890,15,-8,-2,-87.04,-2.26,-1.77,16982.66469079573,0.000531
516,1900-01-01 21:40:24.100,21.787422,39.069702,18.46,538,-314,17162,6,-31,-6,-86.99,-2.22,-1.65,16065.74766389663,0.000607
517,1900-01-01 21:40:24.300,21.78743,39.069695,18.37,-40,-396,16978,-19,-53,-5,-86.97,-2.08,-1.59,16124.954201485349,0.001146
518,1900-01-01 21:40:24.400,21.787434,39.069691,18.33,838,-286,16052,12,-8,-7,-86.91,-1.96,-1.68,16863.011119014303,0.000607
519,1900-01-01 21:40:24.600,21.787441,39.069687,18.26,436,-32,16116,3,-17,-3,-86.86,-1.86,-1.57,16862.85100450099,0.000881
520,1900-01-01 21:40:24.700,21.787445,39.069683,18.26,604,318,16852,6,-9,-4,-86.85,-1.78,-1.47,16782.902728670033,0.000607
521,1900-01-01 21:40:24.800,21.787449,39.069679,18.3,712,226,17510,-12,-4,-9,-86.78,-1.8,-1.32,16777.696623791955,0.000607
522,1900-01-01 21:40:25.000,21.787455,39.069672,18.46,428,-434,16772,-6,23,-7,-86.74,-1.78,-1.37,16786.155724286607,0.000984
523,1900-01-01 21:40:25.100,21.787458,39.069668,18.53,312,-332,16578,-15,-35,-9,-86.66,-1.88,-1.44,16783.07254348857,0.000531
524,1900-01-01 21:40:25.200,21.787462,39.069664,18.53,816,-1008,15676,28,-44,-8,-86.58,-1.88,-1.49,16589.202030236414,0.000607
525,1900-01-01 21:40:25.300,21.787466,39.069664,18.6,254,-550,16940,43,-1,-3,-86.53,-1.78,-1.36,16573.487864659026,0.000445
526,1900-01-01 21:40:25.500,21.787474,39.069656,18.8,654,370,16560,16,-28,0,-86.54,-1.58,-1.02,16576.686399881008,0.001214
527,1900-01-01 21:40:25.600,21.787477,39.069653,18.75,380,-554,16312,8,15,6,-86.55,-1.57,-0.92,16953.185541366554,0.000455
528,1900-01-01 21:40:25.700,21.787481,39.069649,18.93,496,-628,17096,15,-60,4,-86.57,-1.58,-0.96,16706.635927079995,0.000607
529,1900-01-01 21:40:25.900,21.787489,39.069641,19.13,292,632,18422,20,-12,2,-86.56,-1.64,-0.82,16704.496759854814,0.001214
530,1900-01-01 21:40:26.000,21.787495,39.069637,19.33,376,278,16700,18,-39,2,-86.6,-1.65,-0.72,16706.107266505864,0.000785
531,1900-01-01 21:40:26.200,21.787502,39.06963,19.5,356,-94,15790,19,7,4,-86.6,-1.48,-0.63,16191.443295765823,0.001062
532,1900-01-01 21:40:26.300,21.787506,39.06963,19.35,136,576,16100,0,10,3,-86.63,-1.32,-0.53,16138.775790003405,0.000445
533,1900-01-01 21:40:26.500,21.787514,39.069622,19.45,478,338,16184,13,11,-2,-86.68,-1.15,-0.57,16110.208192323276,0.001214
534,1900-01-01 21:40:26.700,21.787521,39.069614,19.5,528,-644,16132,7,39,8,-86.7,-1.16,-0.57,16142.619118346316,0.001135
535,1900-01-01 21:40:26.800,21.787525,39.069611,19.55,294,-304,16106,13,-34,3,-86.73,-1.25,-0.69,16195.464056333798,0.000542
536,1900-01-01 21:40:27.000,21.787533,39.069603,19.67,842,350,17000,-9,5,4,-86.77,-1.26,-0.6,16153.493863557815,0.001214
537,1900-01-01 21:40:27.100,21.787537,39.069599,19.66,982,-668,16308,15,0,6,-86.8,-1.3,-0.74,16324.867043868995,0.000607
538,1900-01-01 21:40:27.300,21.787546,39.069595,19.77,636,-538,15076,-1,30,4,-86.83,-1.29,-0.76,16411.15596172311,0.001083
539,1900-01-01 21:40:27.400,21.78755,39.069592,19.86,-10,-382,17834,-29,-94,5,-86.86,-1.25,-0.83,16322.695978299664,0.000542
540,1900-01-01 21:40:27.600,21.787558,39.069584,20.11,416,-548,16390,-13,47,-1,-86.88,-1.26,-0.98,16404.10314524997,0.001214
541,1900-01-01 21:40:27.800,21.787565,39.069576,19.75,436,-488,16278,0,-1,6,-86.93,-1.37,-1.11,16499.254528614314,0.001135
542,1900-01-01 21:40:28.000,21.787575,39.069569,19.74,370,-624,17340,-1,-20,1,-86.92,-1.3,-1.28,16406.046933981386,0.001326
543,1900-01-01 21:40:28.100,21.787579,39.069569,19.83,70,-754,16486,6,-57,6,-86.95,-1.23,-1.38,16501.95358131879,0.000445
544,1900-01-01 21:40:28.300,21.787586,39.069561,19.96,-318,-654,15580,-5,4,6,-87.0,-1.09,-1.33,16519.099612267008,0.001135
545,1900-01-01 21:40:28.400,21.78759,39.069557,20.01,568,-334,16506,4,15,8,-87.03,-1.2,-1.42,16501.258497460127,0.000607
546,1900-01-01 21:40:28.600,21.7876,39.06955,20.03,40,-1066,16962,-5,9,2,-87.05,-1.39,-1.42,16523.200900551925,0.001326
547,1900-01-01 21:40:28.700,21.787603,39.069546,20.13,734,-706,16216,5,-12,6,-87.1,-1.57,-1.44,16530.852851562136,0.000531
548,1900-01-01 21:40:28.900,21.787613,39.069542,20.46,264,-724,17382,12,-64,4,-87.14,-1.53,-1.37,16873.60684619622,0.001186
549,1900-01-01 21:40:29.000,21.787617,39.069538,20.53,622,-110,15086,-15,34,4,-87.17,-1.47,-1.32,16239.434596068915,0.000607
550,1900-01-01 21:40:29.200,21.787624,39.06953,20.5,-12,-950,16856,2,-29,-1,-87.2,-1.25,-1.37,15704.567615824384,0.001135
551,1900-01-01 21:40:29.400,21.787634,39.069523,20.54,512,-236,15698,-15,23,3,-87.22,-1.25,-1.34,15648.159124957798,0.001326
552,1900-01-01 21:40:29.500,21.787638,39.069519,20.86,388,32,14948,-33,49,0,-87.24,-1.28,-1.28,15705.284333624782,0.000607
553,1900-01-01 21:40:29.600,21.787643,39.069519,20.83,912,-614,15638,-22,-20,0,-87.25,-1.41,-1.43,15704.016556282664,0.000556
554,1900-01-01 21:40:29.800,21.787651,39.069511,21.07,416,-126,16470,6,-36,-2,-87.26,-1.5,-1.56,16475.73464219426,0.001214
555,1900-01-01 21:40:29.900,21.787657,39.069508,20.99,244,708,18562,-5,-91,-5,-87.25,-1.48,-1.38,16486.99972705768,0.000736
556,1900-01-01 21:40:30.100,21.787664,39.0695,21.06,512,-546,18628,-21,-126,-8,-87.21,-1.49,-1.3,17056.152086563958,0.001135
557,1900-01-01 21:40:30.200,21.78767,39.069496,21.08,534,-554,15302,12,43,-7,-87.16,-1.47,-1.38,17064.423928161184,0.000785
558,1900-01-01 21:40:30.300,21.787674,39.069492,21.14,890,14,17048,17,15,0,-87.11,-1.56,-1.36,16320.149386571191,0.000607
559,1900-01-01 21:40:30.500,21.787683,39.069485,21.17,-76,-714,16302,-21,50,-4,-87.04,-1.63,-1.22,16335.673233754402,0.001234
560,1900-01-01 21:40:30.700,21.787691,39.069481,21.49,1014,-694,13632,3,172,-10,-87.0,-1.58,-1.18,16504.035142958222,0.000981
561,1900-01-01 21:40:30.800,21.787697,39.069477,21.5,978,-26,16480,9,31,-20,-86.88,-1.52,-0.97,16310.197301075177,0.000785
562,1900-01-01 21:40:31.000,21.787706,39.069469,21.48,180,102,16834,8,13,-18,-86.65,-1.37,-0.79,16483.69436746508,0.001298
563,1900-01-01 21:40:31.200,21.787714,39.069462,21.65,344,-386,15616,8,-16,-26,-86.47,-1.28,-0.73,16819.604751598654,0.001146
564,1900-01-01 21:40:31.300,21.78772,39.069458,21.77,348,560,16958,0,-12,-33,-86.16,-1.19,-0.49,16837.823374771455,0.000785
565,1900-01-01 21:40:31.500,21.787727,39.06945,21.64,644,-12,16816,8,3,-30,-85.87,-1.38,-0.44,16911.503303964437,0.001135
566,1900-01-01 21:40:31.600,21.787733,39.069447,21.68,40,124,16908,2,3,-33,-85.56,-1.5,-0.3,16961.0454866438,0.000736
567,1900-01-01 21:40:31.800,21.787741,39.069439,21.65,320,-92,17008,10,-17,-32,-85.2,-1.65,-0.15,17008.051269913318,0.001214
568,1900-01-01 21:40:32.000,21.78775,39.069435,21.6,-132,30,18032,0,-83,-35,-84.97,-1.55,-0.1,17008.29585819814,0.001083
569,1900-01-01 21:40:32.100,21.787754,39.069431,21.64,-76,-410,17460,3,-18,-32,-84.69,-1.58,-0.05,17011.92052650141,0.000607
570,1900-01-01 21:40:32.200,21.78776,39.069427,21.72,554,-176,16908,13,48,-29,-84.4,-1.4,0.05,16913.204427310633,0.000785
571,1900-01-01 21:40:32.400,21.787769,39.069416,22.24,872,-194,15034,-13,42,-24,-84.22,-1.44,0.14,16065.141020233841,0.001514
572,1900-01-01 21:40:32.500,21.787773,39.069412,22.65,372,-394,15842,-10,-22,-22,-84.04,-1.36,0.1,15852.870907189019,0.000607
573,1900-01-01 21:40:32.600,21.787779,39.069408,22.7,298,-766,16056,16,1,-16,-83.9,-1.4,-0.08,15847.55451165889,0.000785
574,1900-01-01 21:40:32.700,21.787783,39.069405,22.68,616,530,15728,-6,31,-10,-83.78,-1.29,0.05,15846.791599563616,0.000542
575,1900-01-01 21:40:32.900,21.787792,39.069397,22.68,126,220,16326,-9,91,-9,-83.74,-1.24,0.09,16059.184163586891,0.001298
576,1900-01-01 21:40:33.000,21.787798,39.069393,22.53,750,116,15552,-17,22,-13,-83.67,-1.31,-0.0,16329.02311836198,0.000785
577,1900-01-01 21:40:33.100,21.787802,39.069393,22.59,292,-178,18256,-13,-65,-16,-83.58,-1.25,-0.14,16328.404943533216,0.000445
578,1900-01-01 21:40:33.200,21.787807,39.069389,22.73,-82,-94,16934,-5,-98,-13,-83.48,-1.29,-0.27,16936.318608245416,0.000693
579,1900-01-01 21:40:33.300,21.787813,39.069386,22.87,264,-122,14840,-7,79,-15,-83.39,-1.34,-0.29,16935.716813881838,0.000736
580,1900-01-01 21:40:33.400,21.787817,39.069382,22.99,208,194,16968,-32,-48,-10,-83.31,-1.32,-0.41,16934.87891896485,0.000607
581,1900-01-01 21:40:33.500,21.787823,39.069378,23.06,122,-682,14120,11,71,-12,-83.22,-1.48,-0.64,16969.71337412627,0.000785
582,1900-01-01 21:40:33.600,21.787828,39.069374,23.15,-128,-420,17624,10,-20,-12,-83.08,-1.51,-0.73,16968.848870798513,0.000693
583,1900-01-01 21:40:33.800,21.787838,39.069366,23.44,944,324,17356,9,23,-9,-83.03,-1.45,-0.7,15692.096099629265,0.001385
584,1900-01-01 21:40:33.900,21.787844,39.069363,23.54,-406,-118,15686,0,-99,-9,-82.97,-1.45,-0.64,16635.842509473332,0.000736
585,1900-01-01 21:40:34.000,21.787849,39.069359,23.6,134,-486,15018,3,8,-11,-82.91,-1.46,-0.65,16638.29197964743,0.000693
586,1900-01-01 21:40:34.100,21.787855,39.069355,23.65,690,-676,16630,28,69,-9,-82.82,-1.39,-0.62,15693.49253671725,0.000785
587,1900-01-01 21:40:34.200,21.787861,39.069351,23.67,354,-388,18762,21,-53,-5,-82.76,-1.39,-0.51,16023.338228970892,0.000785
588,1900-01-01 21:40:34.300,21.787865,39.069351,23.71,-584,-466,15232,-4,-35,-10,-82.7,-1.39,-0.41,16098.570122840103,0.000445
589,1900-01-01 21:40:34.400,21.78787,39.069347,23.79,46,-258,16016,7,50,-10,-82.58,-1.45,-0.42,16094.827367822247,0.000693
590,1900-01-01 21:40:34.600,21.787882,39.06934,24.03,542,214,16090,-8,46,-13,-82.55,-1.47,-0.41,16093.491230929354,0.001518
591,1900-01-01 21:40:34.700,21.787886,39.069336,24.16,298,176,16642,-6,-12,-13,-82.47,-1.53,-0.44,16138.814206750136,0.000607
592,1900-01-01 21:40:34.800,21.787891,39.069332,24.3,214,-886,17470,-15,-19,-2,-82.41,-1.36,-0.58,16657.98571256441,0.000693
593,1900-01-01 21:40:34.900,21.787897,39.069328,24.48,440,-1426,16134,-6,-52,1,-82.42,-1.32,-0.79,16654.839897159025,0.000785
594,1900-01-01 21:40:35.000,21.787903,39.069324,24.73,1024,-582,16650,-12,-58,2,-82.43,-1.24,-0.88,16663.318997126593,0.000785
595,1900-01-01 21:40:35.100,21.787909,39.069321,24.8,108,-294,16584,1,-7,10,-82.47,-1.01,-0.99,16600.041566213018,0.000736
596,1900-01-01 21:40:35.200,21.787914,39.069317,24.83,324,-274,17222,8,-69,9,-82.53,-1.16,-1.04,16595.188700343242,0.000693
597,1900-01-01 21:40:35.300,21.787918,39.069313,24.83,704,-838,16240,9,20,5,-82.57,-1.21,-1.04,16245.892157711745,0.000607
598,1900-01-01 21:40:35.400,21.787924,39.069309,24.85,-554,-516,14292,-15,4,11,-82.62,-1.18,-1.03,16251.42553747209,0.000785
599,1900-01-01 21:40:35.500,21.78793,39.069305,24.85,1364,-30,15914,5,45,5,-82.67,-1.23,-1.04,15934.93997478497,0.000785
600,1900-01-01 21:40:35.600,21.787935,39.069302,24.86,-740,-554,17424,12,-102,7,-82.71,-1.17,-1.11,15474.618315163705,0.000636
601,1900-01-01 21:40:35.700,21.787941,39.069298,24.9,600,-938,14054,6,39,11,-82.75,-1.18,-1.17,15924.206730634967,0.000785
602,1900-01-01 21:40:35.800,21.787947,39.069294,24.91,20,-344,15466,0,-2,7,-82.81,-1.04,-1.16,16108.090141292356,0.000785
603,1900-01-01 21:40:35.900,21.787951,39.06929,24.87,360,-442,16712,-7,8,14,-82.87,-0.97,-1.18,16105.698991350857,0.000607
604,1900-01-01 21:40:36.000,21.787956,39.069286,24.81,812,-218,16098,3,37,13,-82.95,-0.91,-1.26,16103.26103620009,0.000693
605,1900-01-01 21:40:36.100,21.787962,39.069283,24.8,-282,-52,16884,-16,-24,15,-83.03,-0.8,-1.29,16108.090141292356,0.000736
606,1900-01-01 21:40:36.200,21.787968,39.069279,24.86,226,-738,15764,-9,71,18,-83.12,-0.84,-1.36,15786.362215532748,0.000785
607,1900-01-01 21:40:36.300,21.787973,39.069275,24.91,640,-612,13876,18,83,19,-83.23,-0.95,-1.43,15786.362215532748,0.000693
608,1900-01-01 21:40:36.400,21.787979,39.069271,24.94,646,-544,15302,1,68,21,-83.33,-0.95,-1.44,15788.851763190381,0.000785
609,1900-01-01 21:40:36.500,21.787983,39.069267,24.96,1342,-424,16342,-9,-39,20,-83.48,-1.05,-1.44,15443.2158568091,0.000607
610,1900-01-01 21:40:36.600,21.787989,39.069263,25.03,132,-1014,16128,17,-13,21,-83.59,-1.17,-1.51,15435.132522916672,0.000785
611,1900-01-01 21:40:36.700,21.787994,39.06926,25.04,400,-554,15420,-19,62,11,-83.69,-1.19,-1.47,16138.120832364591,0.000636
612,1900-01-01 21:40:36.800,21.788,39.069256,25.08,-214,-556,15370,4,-11,16,-83.79,-1.21,-1.51,15430.585212492753,0.000785
613,1900-01-01 21:40:36.900,21.788006,39.069252,25.13,-672,-938,16884,-11,-77,21,-83.93,-1.2,-1.58,15431.143185130517,0.000785
614,1900-01-01 21:40:37.000,21.788012,39.069248,25.21,650,-264,14980,-10,32,17,-84.03,-1.12,-1.61,15736.99704517987,0.000785
615,1900-01-01 21:40:37.100,21.788017,39.069244,25.3,192,28,17522,2,-43,19,-84.17,-1.04,-1.63,16548.945223185678,0.000693
616,1900-01-01 21:40:37.200,21.788023,39.069241,25.39,608,-768,15726,10,-38,22,-84.26,-1.21,-1.73,16548.945223185678,0.000736
617,1900-01-01 21:40:37.300,21.788029,39.069237,25.45,-162,-846,16530,-3,13,19,-84.41,-1.11,-1.69,17135.368102261473,0.000785
618,1900-01-01 21:40:37.400,21.788033,39.069233,25.47,-594,-840,17114,-1,-88,22,-84.53,-1.12,-1.75,17127.378083057545,0.000607
619,1900-01-01 21:40:37.500,21.788038,39.069229,25.53,-268,-856,17826,20,-76,18,-84.65,-1.17,-1.74,17127.378083057545,0.000693
620,1900-01-01 21:40:37.600,21.788044,39.069225,25.74,762,-294,17106,10,-62,20,-84.83,-1.13,-1.7,17148.24924008279,0.000785
621,1900-01-01 21:40:37.800,21.788055,39.069218,25.98,684,-338,16628,-14,-64,17,-84.96,-1.11,-1.66,17129.000087570785,0.001421
622,1900-01-01 21:40:37.900,21.788061,39.06921,26.14,778,-840,17306,8,12,18,-85.08,-1.02,-1.71,17123.006044500482,0.001062
623,1900-01-01 21:40:38.000,21.788067,39.069206,26.22,-944,-262,17112,9,-76,18,-85.19,-0.9,-1.67,16633.998076229298,0.000785
624,1900-01-01 21:40:38.100,21.788073,39.069202,26.13,204,-1002,16582,6,39,23,-85.34,-0.82,-1.62,17116.49648730721,0.000785
625,1900-01-01 21:40:38.200,21.788078,39.069199,26.14,292,-256,16464,1,-2,18,-85.48,-0.76,-1.62,17115.22141253218,0.000636
626,1900-01-01 21:40:38.300,21.788084,39.069195,26.16,348,-82,17114,3,-18,19,-85.61,-0.71,-1.63,16591.343043888883,0.000785
627,1900-01-01 21:40:38.400,21.78809,39.069191,26.09,84,-852,17176,18,11,21,-85.73,-0.71,-1.65,16468.5790522437,0.000785
628,1900-01-01 21:40:38.500,21.788094,39.069187,26.07,618,-474,16050,-2,38,14,-85.85,-0.65,-1.58,17120.76890796672,0.000607
629,1900-01-01 21:40:38.600,21.788099,39.069183,26.09,-214,-38,15692,-15,8,21,-85.96,-0.7,-1.57,17184.328791081716,0.000693
630,1900-01-01 21:40:38.700,21.788105,39.06918,26.16,-32,-534,17920,-6,10,20,-86.08,-0.62,-1.62,16058.912790098837,0.000736
631,1900-01-01 21:40:38.800,21.788111,39.069172,26.26,-502,-816,17208,2,-44,19,-86.18,-0.64,-1.65,16564.82791942011,0.001062
632,1900-01-01 21:40:38.900,21.788116,39.069168,26.33,252,-700,14984,-1,93,23,-86.28,-0.62,-1.69,16564.82791942011,0.000693
633,1900-01-01 21:40:39.000,21.788122,39.069164,26.36,334,-782,16550,-6,1,19,-86.39,-0.54,-1.67,16568.928752336404,0.000785
634,1900-01-01 21:40:39.100,21.788128,39.06916,26.45,-344,-466,16364,-4,141,22,-86.5,-0.56,-1.66,16379.434422470149,0.000785
635,1900-01-01 21:40:39.200,21.788132,39.069157,26.5,124,-1028,17208,2,-62,20,-86.62,-0.57,-1.76,16564.73772807768,0.000542
636,1900-01-01 21:40:39.300,21.788137,39.069149,26.66,-256,-64,15874,1,-14,18,-86.76,-0.55,-1.69,16372.63534071409,0.000996
637,1900-01-01 21:40:39.400,21.788143,39.069145,26.77,-604,-650,17246,-5,-17,23,-86.87,-0.4,-1.69,17214.23236743364,0.000785
638,1900-01-01 21:40:39.500,21.788149,39.069141,26.87,448,216,16304,0,5,20,-86.99,-0.45,-1.67,16910.344408083474,0.000785
639,1900-01-01 21:40:39.600,21.788155,39.069134,27.04,-496,-386,17220,-17,39,16,-87.11,-0.31,-1.68,16908.45386189997,0.000984
640,1900-01-01 21:40:39.700,21.78816,39.06913,27.02,2,-732,16904,-9,-20,20,-87.16,-0.33,-1.72,16905.999526795214,0.000693
641,1900-01-01 21:40:39.800,21.788166,39.069126,27.01,-40,-260,16178,-1,-32,15,-87.27,-0.34,-1.72,17064.027777755167,0.000785
642,1900-01-01 21:40:39.900,21.78817,39.069118,27.0,546,268,17062,-2,-33,11,-87.36,-0.27,-1.66,16904.250471405114,0.000938
643,1900-01-01 21:40:40.000,21.788176,39.069115,27.0,-562,-92,17584,0,-7,5,-87.42,-0.2,-1.57,16178.416609792195,0.000736
644,1900-01-01 21:40:40.100,21.788181,39.069111,27.0,114,32,14846,-7,-6,-3,-87.42,-0.22,-1.49,16112.418316317386,0.000693
645,1900-01-01 21:40:40.200,21.788187,39.069103,27.02,588,-22,16112,-14,29,-7,-87.39,-0.17,-1.46,16112.050893663414,0.001062
646,1900-01-01 21:40:40.300,21.788193,39.069099,27.03,34,-432,15738,5,-46,-6,-87.36,-0.17,-1.5,16112.050893663414,0.000785
647,1900-01-01 21:40:40.400,21.788198,39.069096,27.04,-90,520,18346,-34,-85,-6,-87.32,-0.11,-1.44,16117.82628024015,0.000636
648,1900-01-01 21:40:40.500,21.788204,39.069092,27.03,-662,-576,18180,-12,-17,-5,-87.3,-0.09,-1.53,17089.743473791525,0.000785
649,1900-01-01 21:40:40.600,21.78821,39.069084,27.02,414,-950,15190,21,21,-7,-87.26,-0.19,-1.61,17247.85551887538,0.001062
650,1900-01-01 21:40:40.700,21.788214,39.06908,26.98,250,-856,17080,3,-44,-4,-87.22,-0.1,-1.58,17089.957284908585,0.000607
651,1900-01-01 21:40:40.800,21.788219,39.069077,26.91,-532,-542,17238,9,-61,0,-87.21,-0.01,-1.48,17088.84513359519,0.000636
652,1900-01-01 21:40:40.900,21.788225,39.069073,26.89,-92,-198,14642,9,32,-4,-87.19,-0.03,-1.37,17083.06073278439,0.000785
653,1900-01-01 21:40:41.000,21.788231,39.069065,26.87,-786,-122,17936,5,-56,-6,-87.17,0.06,-1.3,16663.983437341743,0.001062
654,1900-01-01 21:40:41.100,21.788235,39.069061,26.75,116,-310,16072,17,43,-4,-87.14,-0.03,-1.2,16663.43037912662,0.000607
655,1900-01-01 21:40:41.200,21.78824,39.069057,26.72,-164,8,16662,4,28,-2,-87.12,-0.06,-1.08,17130.438640034878,0.000693
656,1900-01-01 21:40:41.300,21.788246,39.069054,26.62,142,-350,17288,-4,-89,-3,-87.1,-0.07,-1.09,17130.394624759818,0.000736
657,1900-01-01 21:40:41.400,21.78825,39.069046,26.47,12,258,17130,-23,24,-12,-87.05,-0.16,-1.01,17130.645054988443,0.000938
658,1900-01-01 21:40:41.500,21.788256,39.069042,26.3,716,480,18432,-14,-47,-6,-87.01,-0.27,-1.07,17183.569012286127,0.000785
659,1900-01-01 21:40:41.600,21.788261,39.069038,26.24,228,44,14724,-5,78,-6,-86.96,-0.41,-1.14,17134.315276660458,0.000693
660,1900-01-01 21:40:41.700,21.788265,39.069035,26.18,390,-264,17182,-15,-68,-6,-86.92,-0.44,-1.19,16746.43902446129,0.000542
661,1900-01-01 21:40:41.800,21.788271,39.069027,26.14,382,-768,16022,18,-63,-3,-86.89,-0.45,-1.3,16746.720275922686,0.001062
662,1900-01-01 21:40:41.900,21.788277,39.069023,26.09,-682,-930,16740,17,-9,-5,-86.87,-0.3,-1.22,16747.542506290287,0.000785
663,1900-01-01 21:40:42.000,21.788282,39.069019,26.0,172,-416,16918,6,-32,1,-86.85,-0.26,-1.12,16746.58711499152,0.000693
664,1900-01-01 21:40:42.100,21.788286,39.069016,25.95,282,-358,14938,19,-54,-1,-86.85,-0.28,-1.03,16746.051474899985,0.000542
665,1900-01-01 21:40:42.200,21.788292,39.069012,25.95,218,1168,18074,5,-12,-1,-86.84,-0.24,-0.91,16297.390956837233,0.000785
666,1900-01-01 21:40:42.300,21.788296,39.069004,25.96,-112,-848,16292,9,19,-6,-86.8,-0.35,-0.95,16212.49727833439,0.000938
667,1900-01-01 21:40:42.400,21.788301,39.069,25.94,314,-38,16210,-6,9,-10,-86.77,-0.38,-0.9,16295.069929276155,0.000693
668,1900-01-01 21:40:42.500,21.788307,39.068996,25.91,426,968,14506,19,81,-3,-86.73,-0.39,-0.9,16213.085455890252,0.000785
669,1900-01-01 21:40:42.600,21.788313,39.068993,25.87,548,-334,17206,19,-35,2,-86.71,-0.46,-0.8,16213.085455890252,0.000736
670,1900-01-01 21:40:42.700,21.788317,39.068985,25.82,-316,342,16078,-28,18,-4,-86.71,-0.46,-0.62,16730.13831383351,0.000938
671,1900-01-01 21:40:42.800,21.788322,39.068981,25.76,164,-932,16820,-12,-59,-5,-86.7,-0.51,-0.7,16824.11519218767,0.000693
672,1900-01-01 21:40:42.900,21.788326,39.068977,25.63,102,-616,16726,-1,69,-7,-86.65,-0.55,-0.75,16826.221203823512,0.000607
673,1900-01-01 21:40:43.000,21.788332,39.068974,25.57,178,-276,17362,-5,-42,2,-86.64,-0.6,-0.8,16831.003891628094,0.000736
674,1900-01-01 21:40:43.100,21.788338,39.06897,25.5,-330,-446,16862,25,10,7,-86.66,-0.65,-0.82,16735.278426127246,0.000785
675,1900-01-01 21:40:43.200,21.788342,39.068962,25.42,862,-586,16406,9,140,5,-86.7,-0.7,-0.77,16811.83606867495,0.000938
676,1900-01-01 21:40:43.300,21.788347,39.068958,25.39,446,-528,16052,-10,-106,4,-86.71,-0.83,-0.81,16773.26837560289,0.000693
677,1900-01-01 21:40:43.400,21.788353,39.068954,25.45,496,-356,16800,-13,27,-1,-86.71,-0.86,-0.89,16784.900952939817,0.000785
678,1900-01-01 21:40:43.500,21.788357,39.068951,25.52,968,34,16760,-30,18,-1,-86.72,-1.01,-0.97,16775.765019813552,0.000542
679,1900-01-01 21:40:43.600,21.788363,39.068947,25.56,746,-798,16858,-5,-50,1,-86.72,-1.11,-1.16,16777.16412269964,0.000785
680,1900-01-01 21:40:43.700,21.788366,39.068939,25.6,634,-350,16420,-7,-2,3,-86.72,-1.22,-1.23,16438.290665394623,0.000891
681,1900-01-01 21:40:43.800,21.788372,39.068935,25.64,670,-758,15756,21,31,8,-86.76,-1.38,-1.24,15831.508203579342,0.000785
682,1900-01-01 21:40:43.900,21.788378,39.068932,25.71,464,-390,15814,16,-4,12,-86.82,-1.47,-1.19,15826.835185848116,0.000736
683,1900-01-01 21:40:44.000,21.788382,39.068928,25.83,470,-332,15746,6,-40,8,-86.88,-1.62,-1.14,15830.118382374783,0.000607
684,1900-01-01 21:40:44.100,21.788387,39.06892,25.95,504,-506,16848,-2,-34,5,-86.92,-1.6,-1.1,16665.194748337028,0.000996
685,1900-01-01 21:40:44.200,21.788393,39.068916,26.12,722,-792,16654,7,-14,9,-86.97,-1.55,-1.14,16664.93192305327,0.000785
686,1900-01-01 21:40:44.300,21.788399,39.068913,26.4,276,64,17296,-4,-23,8,-87.03,-1.51,-1.09,16858.823683756822,0.000736
687,1900-01-01 21:40:44.400,21.788404,39.068909,26.66,640,-300,15496,-5,33,13,-87.09,-1.58,-1.1,16861.41026130377,0.000693
688,1900-01-01 21:40:44.500,21.78841,39.068901,27.07,1046,-256,16844,10,-27,10,-87.15,-1.74,-1.15,16858.098113369728,0.001062
689,1900-01-01 21:40:44.600,21.788416,39.068897,27.53,1030,610,17032,5,-74,13,-87.21,-1.79,-1.12,16869.256415147647,0.000785
690,1900-01-01 21:40:44.700,21.788422,39.068893,27.68,550,-290,16836,-12,-96,14,-87.29,-1.83,-1.12,16869.256415147647,0.000785
691,1900-01-01 21:40:44.800,21.788427,39.068886,27.77,876,-698,16918,-3,8,7,-87.34,-1.87,-1.2,16854.487592329824,0.000912
692,1900-01-01 21:40:44.900,21.788433,39.068882,27.87,668,-1022,14300,0,78,8,-87.38,-2.07,-1.27,16854.487592329824,0.000785
693,1900-01-01 21:40:45.000,21.788439,39.068878,27.93,734,-48,16368,-16,21,7,-87.42,-2.02,-1.24,16384.51964507962,0.000785
694,1900-01-01 21:40:45.100,21.788445,39.068874,28.01,1122,360,17950,-8,38,5,-87.47,-2.01,-1.24,16384.51964507962,0.000785
695,1900-01-01 21:40:45.200,21.78845,39.068867,28.13,554,46,16066,-6,20,2,-87.48,-2.15,-1.31,17195.739588630666,0.000912
696,1900-01-01 21:40:45.300,21.788456,39.068863,28.24,1324,-146,17996,3,-51,-1,-87.48,-2.19,-1.34,17216.66053565557,0.000785
697,1900-01-01 21:40:45.400,21.788462,39.068859,28.36,-188,-556,17180,-3,-56,0,-87.48,-2.3,-1.31,16075.614700533228,0.000785
698,1900-01-01 21:40:45.500,21.788467,39.068851,28.44,2318,88,14894,12,81,0,-87.47,-2.28,-1.35,17231.560927553837,0.000996
699,1900-01-01 21:40:45.600,21.788473,39.068848,28.54,294,458,14770,4,15,1,-87.49,-2.32,-1.28,17254.12008767761,0.000736
700,1900-01-01 21:40:45.700,21.788479,39.068844,28.62,1586,-886,18354,32,-59,0,-87.48,-2.31,-1.31,16626.053049356,0.000785
701,1900-01-01 21:40:45.800,21.788486,39.068836,28.83,1696,-192,18510,14,-44,0,-87.48,-2.26,-1.21,18187.832966024293,0.001135
702,1900-01-01 21:40:45.900,21.78849,39.068832,28.88,498,340,16550,24,-24,5,-87.5,-2.23,-1.12,18217.949500424027,0.000607
703,1900-01-01 21:40:46.000,21.788498,39.068829,29.03,62,-822,18180,-4,-95,-3,-87.5,-2.22,-0.98,16582.237002286514,0.000942
704,1900-01-01 21:40:46.100,21.788504,39.068821,29.15,840,-1234,15456,-1,80,-2,-87.48,-2.44,-1.0,15490.513871398844,0.001062
705,1900-01-01 21:40:46.200,21.788509,39.068817,29.35,780,-678,15444,2,-32,-4,-87.46,-2.61,-1.0,15481.680141380004,0.000693
706,1900-01-01 21:40:46.300,21.788515,39.06881,29.55,1772,468,13386,-14,76,2,-87.47,-2.64,-0.92,13453.683807790341,0.000984
707,1900-01-01 21:40:46.400,21.788521,39.068806,29.71,858,-382,12802,9,119,2,-87.49,-2.49,-0.98,13452.786031153546,0.000785
708,1900-01-01 21:40:46.500,21.788527,39.068802,29.83,-328,-302,13422,-28,-2,-6,-87.48,-2.31,-0.9,13452.786031153546,0.000785
709,1900-01-01 21:40:46.600,21.788532,39.068794,29.98,990,440,16524,-5,-45,-11,-87.43,-2.15,-0.93,14890.828721061833,0.000996
710,1900-01-01 21:40:46.700,21.78854,39.06879,30.03,4,-462,15442,2,27,0,-87.39,-2.19,-0.92,15461.540156142271,0.000981
711,1900-01-01 21:40:46.800,21.788546,39.068783,30.08,770,-922,14866,-7,68,-3,-87.38,-2.48,-0.83,16543.422620485762,0.000984
712,1900-01-01 21:40:46.900,21.788551,39.068779,30.23,716,-64,17346,-12,-28,-7,-87.36,-2.54,-0.84,16439.551575392805,0.000693
713,1900-01-01 21:40:47.000,21.788557,39.068771,30.29,102,-360,17986,1,-75,-9,-87.32,-2.36,-0.92,16629.746480328555,0.001062
714,1900-01-01 21:40:47.100,21.788563,39.068768,30.32,230,-104,16434,31,-10,-3,-87.3,-2.17,-0.92,17240.99266283702,0.000736
715,1900-01-01 21:40:47.200,21.788568,39.068764,30.37,954,218,16614,-12,45,-5,-87.28,-2.2,-0.78,16620.582059603086,0.000693
716,1900-01-01 21:40:47.300,21.788576,39.068756,30.45,988,498,17226,15,22,-2,-87.27,-2.24,-0.79,16455.37589968701,0.001214
717,1900-01-01 21:40:47.400,21.788582,39.068752,30.53,456,-380,15888,5,47,-1,-87.25,-2.3,-0.81,16636.247894281933,0.000785
718,1900-01-01 21:40:47.500,21.788588,39.068745,30.64,832,-382,15888,-6,31,-4,-87.23,-2.35,-0.79,17245.80099618455,0.000984
719,1900-01-01 21:40:47.600,21.788593,39.068741,30.71,816,438,17810,3,2,-3,-87.22,-2.37,-0.8,16362.777881521219,0.000693
720,1900-01-01 21:40:47.700,21.788599,39.068737,30.77,824,60,17512,3,-7,-2,-87.19,-2.42,-0.82,16584.492153816467,0.000785
721,1900-01-01 21:40:47.800,21.788607,39.068729,30.86,90,-784,16338,-6,-5,-2,-87.18,-2.41,-0.88,17522.528128098413,0.001214
722,1900-01-01 21:40:47.900,21.788612,39.068726,31.03,-62,-588,16560,2,-6,-5,-87.15,-2.37,-0.93,16573.873536382496,0.000636
723,1900-01-01 21:40:48.000,21.788618,39.068718,31.12,152,-672,17524,-12,-54,0,-87.13,-2.23,-0.93,16573.873536382496,0.001062
724,1900-01-01 21:40:48.100,21.788626,39.068714,31.26,10,-672,15302,9,15,-4,-87.14,-2.17,-0.96,16571.132972733034,0.000981
725,1900-01-01 21:40:48.200,21.788631,39.068707,31.43,1020,-452,17118,18,10,0,-87.11,-2.18,-0.96,16548.538787457943,0.000912
726,1900-01-01 21:40:48.300,21.788637,39.068703,31.55,1124,-138,16534,1,6,-6,-87.1,-2.31,-0.89,16545.899673332966,0.000785
727,1900-01-01 21:40:48.400,21.788643,39.068695,31.62,526,-224,15330,-3,26,-2,-87.09,-2.35,-0.92,17129.493979683113,0.001062
728,1900-01-01 21:40:48.500,21.788651,39.068691,31.69,244,-342,18182,-5,-32,-8,-87.06,-2.35,-0.93,18187.220458332824,0.000981
729,1900-01-01 21:40:48.600,21.788656,39.068684,31.82,270,-392,19264,-1,-123,-3,-87.04,-2.29,-0.95,18187.220458332824,0.000912
730,1900-01-01 21:40:48.700,21.788662,39.06868,31.87,-452,-976,18388,4,-5,1,-87.03,-2.16,-0.94,18188.229380563684,0.000785
731,1900-01-01 21:40:48.800,21.78867,39.068672,31.97,740,-6,16450,-12,91,0,-87.02,-2.25,-0.92,17522.01312635052,0.001214
732,1900-01-01 21:40:48.900,21.788675,39.068668,32.09,508,-428,16392,1,24,-3,-87.0,-2.52,-0.98,17425.379307205912,0.000693
733,1900-01-01 21:40:49.000,21.788681,39.068665,32.15,444,-372,17512,-2,-43,-4,-86.98,-2.67,-0.99,16462.045680898835,0.000736
734,1900-01-01 21:40:49.100,21.788689,39.068657,32.22,1116,-62,17414,8,-14,-5,-86.96,-2.53,-0.99,16803.320624209966,0.001214
735,1900-01-01 21:40:49.200,21.788694,39.068653,32.37,-338,-486,15958,2,-30,-2,-86.95,-2.34,-0.99,17423.63096487067,0.000693
736,1900-01-01 21:40:49.300,21.788702,39.068645,32.54,-58,-454,16792,-14,-22,-2,-86.94,-2.31,-0.95,16817.686999109002,0.001214
737,1900-01-01 21:40:49.400,21.788708,39.068638,32.65,896,-150,18124,15,-73,-4,-86.92,-2.34,-0.99,15978.762655474922,0.000984
738,1900-01-01 21:40:49.500,21.788715,39.068634,32.75,976,-246,14740,29,95,-3,-86.89,-2.29,-0.95,15767.378348983702,0.000881
739,1900-01-01 21:40:49.600,21.788721,39.068626,32.89,676,-464,15750,4,20,0,-86.87,-2.21,-0.89,14981.021326999038,0.001062
740,1900-01-01 21:40:49.700,21.788729,39.068623,33.02,698,470,13858,12,95,-3,-86.86,-2.18,-0.84,14756.561252541189,0.000942
741,1900-01-01 21:40:49.800,21.788734,39.068615,33.13,356,190,14964,3,36,-4,-86.84,-2.3,-0.78,14979.304656758937,0.000996
742,1900-01-01 21:40:49.900,21.788742,39.068611,33.23,1384,-36,12910,5,123,-3,-86.81,-2.37,-0.78,14968.277389198798,0.000981
743,1900-01-01 21:40:50.000,21.788748,39.068604,33.33,80,-970,17648,0,-97,-3,-86.79,-2.34,-0.75,16622.43652416817,0.000984
744,1900-01-01 21:40:50.100,21.788755,39.0686,33.44,-248,-332,19374,-21,-57,-5,-86.76,-2.25,-0.71,16667.691621817343,0.000881
745,1900-01-01 21:40:50.200,21.788761,39.068592,33.58,1278,-144,16618,-8,53,-4,-86.74,-2.27,-0.76,16969.78974530916,0.001062
746,1900-01-01 21:40:50.300,21.788769,39.068584,33.82,1364,-130,15094,-5,53,-3,-86.71,-2.34,-0.8,16633.78742199142,0.001214
747,1900-01-01 21:40:50.400,21.788774,39.068581,34.17,598,-1068,16956,-2,-51,-4,-86.7,-2.31,-0.88,16525.387620264766,0.000636
748,1900-01-01 21:40:50.500,21.788782,39.068573,34.59,644,-606,16512,-1,36,-5,-86.67,-2.23,-0.89,16258.306676895967,0.001214
749,1900-01-01 21:40:50.600,21.78879,39.068565,34.9,-150,-166,15628,-1,-26,-4,-86.65,-2.14,-0.9,16538.032047374923,0.001214
750,1900-01-01 21:40:50.700,21.788797,39.068562,34.86,362,-854,16236,-26,-86,-4,-86.63,-2.08,-0.92,16523.155751853217,0.000838
751,1900-01-01 21:40:50.800,21.788803,39.068554,34.99,-256,-1246,17470,16,15,-6,-86.6,-1.92,-1.02,16243.312100677005,0.001062
752,1900-01-01 21:40:50.900,21.788811,39.06855,35.05,36,-480,17544,-21,-4,-6,-86.55,-1.84,-0.99,16901.376156987928,0.000981
753,1900-01-01 21:40:51.000,21.788818,39.068542,35.12,284,-486,16194,-9,-22,-3,-86.53,-1.77,-1.02,16901.204690790535,0.001135
754,1900-01-01 21:40:51.100,21.788824,39.068535,35.23,710,10,16892,21,-5,-4,-86.51,-1.72,-1.08,16256.483998700334,0.000984
755,1900-01-01 21:40:51.200,21.788832,39.068531,35.46,452,126,16254,17,-17,-5,-86.49,-1.6,-1.02,16197.698972384936,0.000981
756,1900-01-01 21:40:51.300,21.788839,39.068523,35.49,-444,188,14958,12,76,1,-86.47,-1.35,-0.96,16257.685321102756,0.001135
757,1900-01-01 21:40:51.400,21.788847,39.06852,35.46,346,-58,15434,29,126,-3,-86.46,-1.26,-0.89,15437.986785847434,0.000942
758,1900-01-01 21:40:51.500,21.788853,39.068512,35.43,-984,-1072,18590,35,89,-2,-86.43,-1.19,-0.82,15436.196163563094,0.001062
759,1900-01-01 21:40:51.600,21.78886,39.068508,35.34,770,-724,12076,8,-12,1,-86.42,-1.5,-0.91,16058.111096888077,0.000881
760,1900-01-01 21:40:51.700,21.788868,39.068501,35.24,110,-236,16056,9,56,-7,-86.4,-1.33,-0.91,17189.28747796138,0.001146
761,1900-01-01 21:40:51.800,21.788874,39.068497,35.19,-1366,1896,18278,-26,-93,-4,-86.37,-1.09,-0.87,16160.262497868034,0.000785
762,1900-01-01 21:40:51.900,21.788881,39.068489,35.16,-822,428,17168,-6,-91,-2,-86.38,-0.64,-0.95,17168.52154380219,0.001135
763,1900-01-01 21:40:52.000,21.788889,39.068481,35.21,-132,-652,16158,-8,64,1,-86.36,-0.84,-1.04,18278.580470047447,0.001214
764,1900-01-01 21:40:52.100,21.788897,39.068478,35.3,730,-22,19636,-14,-88,0,-86.34,-0.99,-1.06,17168.52154380219,0.000942
765,1900-01-01 21:40:52.200,21.788904,39.06847,35.44,-144,-300,18408,-13,-37,3,-86.35,-0.98,-1.13,17498.993571060022,0.001135
766,1900-01-01 21:40:52.300,21.78891,39.068466,35.39,474,564,15756,-3,93,0,-86.34,-1.0,-1.22,18014.735968090125,0.000785
767,1900-01-01 21:40:52.400,21.788918,39.068462,35.35,1002,-668,17490,-4,-26,0,-86.34,-1.14,-1.28,17497.54234171188,0.000981
768,1900-01-01 21:40:52.500,21.788925,39.068455,35.38,392,-332,18006,-4,-10,-2,-86.34,-1.16,-1.32,16520.57577689107,0.001062
769,1900-01-01 21:40:52.600,21.788933,39.068451,35.39,230,-368,16512,-7,13,2,-86.36,-1.06,-1.36,16520.751556754312,0.000981
770,1900-01-01 21:40:52.700,21.78894,39.068443,35.44,416,-152,15738,6,9,5,-86.38,-1.05,-1.42,15999.037096025499,0.001135
771,1900-01-01 21:40:52.800,21.788948,39.068439,35.54,294,-1266,15332,-10,42,13,-86.41,-1.19,-1.53,15769.774887423093,0.000981
772,1900-01-01 21:40:52.900,21.788956,39.068432,35.57,556,-910,15990,-36,-31,31,-86.52,-1.26,-1.8,15798.624497088345,0.001146
773,1900-01-01 21:40:53.000,21.788963,39.068428,35.49,652,-3152,14562,-30,55,63,-86.79,-1.19,-2.37,16281.69327803469,0.000881
774,1900-01-01 21:40:53.100,21.788969,39.06842,35.53,984,-3440,15964,-29,-11,90,-87.28,-1.1,-3.21,16365.293642339571,0.001062
775,1900-01-01 21:40:53.200,21.788977,39.068417,35.58,496,-3602,16524,-33,-40,123,-87.95,-1.03,-4.08,16655.717817014072,0.000942
776,1900-01-01 21:40:53.300,21.788984,39.068409,35.54,336,-4690,16536,-27,-20,159,-88.81,-1.06,-5.04,17153.086252916703,0.001135
777,1900-01-01 21:40:53.400,21.788992,39.068405,35.6,-12,-4576,16254,-4,-36,178,-89.85,-1.12,-5.98,17164.646457180526,0.000981
778,1900-01-01 21:40:53.500,21.789,39.068401,35.58,882,-4738,17208,4,15,193,-90.99,-1.28,-6.77,17372.958297307916,0.000981
779,1900-01-01 21:40:53.600,21.789005,39.068394,35.58,620,-3142,16748,-29,-73,194,-92.18,-1.36,-7.35,17250.0064927524,0.000912
780,1900-01-01 21:40:53.700,21.789013,39.06839,35.63,636,-3482,18222,-36,-35,194,-93.25,-1.6,-7.92,17179.252370228456,0.000981
781,1900-01-01 21:40:53.800,21.789021,39.068382,35.69,1096,-4082,15074,-26,-19,190,-94.41,-1.96,-8.59,16870.007231770825,0.001214
782,1900-01-01 21:40:53.900,21.789026,39.068378,35.7,1868,-3722,15446,-2,-13,188,-95.59,-2.11,-9.1,16264.383787896792,0.000693
783,1900-01-01 21:40:54.000,21.789034,39.068371,35.71,184,-3786,16442,-6,16,178,-96.75,-2.01,-9.41,16278.189702789436,0.001146
784,1900-01-01 21:40:54.100,21.789042,39.068367,35.75,526,-3692,15820,12,28,163,-97.81,-2.06,-9.55,16259.158649819492,0.000981
785,1900-01-01 21:40:54.200,21.789047,39.068359,35.78,924,-1806,16400,11,33,129,-98.76,-2.4,-9.38,15931.437850991353,0.000996
786,1900-01-01 21:40:54.300,21.789055,39.068356,35.83,676,-1112,15446,40,-69,81,-99.4,-2.61,-8.91,15867.754094389036,0.000942
787,1900-01-01 21:40:54.400,21.789062,39.068348,35.98,402,-8,15386,55,-10,39,-99.72,-2.59,-8.19,16282.96508624888,0.001135
788,1900-01-01 21:40:54.500,21.78907,39.06834,36.13,-360,1272,16278,37,-42,0,-99.87,-2.28,-7.15,16332.570893769296,0.001214
789,1900-01-01 21:40:54.600,21.789076,39.068336,36.24,-1112,1726,16426,51,91,-38,-99.75,-2.12,-6.0,16395.080847620116,0.000785
790,1900-01-01 21:40:54.700,21.789083,39.068329,36.39,622,1890,16330,77,38,-94,-99.38,-2.21,-4.79,16413.423896311215,0.001062
791,1900-01-01 21:40:54.800,21.789091,39.068325,36.51,-372,3330,16300,77,-20,-141,-98.61,-2.17,-2.97,16670.218474873087,0.000981
792,1900-01-01 21:40:54.900,21.789097,39.068317,36.54,-626,5002,15470,79,31,-183,-97.62,-1.96,-1.09,17082.953140484817,0.001062
793,1900-01-01 21:40:55.000,21.789104,39.06831,36.73,358,5754,16378,35,-11,-227,-96.39,-1.69,0.71,17057.317139573854,0.001062
794,1900-01-01 21:40:55.100,21.78911,39.068302,36.81,-968,5116,16386,15,-61,-238,-94.99,-1.47,2.08,16765.14551085078,0.001062
795,1900-01-01 21:40:55.200,21.789118,39.068295,36.75,-492,4468,15950,4,-9,-236,-93.57,-1.18,3.17,16634.823233205694,0.001146
796,1900-01-01 21:40:55.300,21.789124,39.068291,36.48,-90,4384,15994,-13,68,-236,-92.14,-1.03,4.09,16612.45845743489,0.000785
797,1900-01-01 21:40:55.400,21.789129,39.068283,36.22,-514,4214,16016,-8,116,-234,-90.72,-1.01,4.89,16589.219873158592,0.000996
798,1900-01-01 21:40:55.500,21.789137,39.068275,36.03,-418,3622,17184,17,47,-233,-89.32,-1.12,5.61,16566.374859938427,0.001214
799,1900-01-01 21:40:55.600,21.789143,39.068268,35.9,78,4728,15844,4,14,-228,-87.95,-1.27,6.34,17213.128361805706,0.000984
800,1900-01-01 21:40:55.700,21.789148,39.068264,35.96,-546,3858,17980,-8,-84,-220,-86.6,-1.36,6.91,17213.128361805706,0.000693
801,1900-01-01 21:40:55.800,21.789156,39.068256,35.93,350,3054,16770,25,0,-218,-85.28,-1.42,7.35,16851.91514338949,0.001214
802,1900-01-01 21:40:55.900,21.789162,39.068249,36.0,-608,3904,16404,23,29,-215,-83.94,-1.36,7.86,16797.73425197577,0.000984
803,1900-01-01 21:40:56.000,21.789169,39.068241,36.06,-108,3614,15872,6,32,-204,-82.53,-1.38,8.33,16764.86337552442,0.001135
804,1900-01-01 21:40:56.100,21.789175,39.068237,36.09,818,3458,15698,-6,44,-196,-81.17,-1.41,8.64,16723.769670741105,0.000785
805,1900-01-01 21:40:56.200,21.789183,39.06823,36.05,-506,1738,16454,-12,8,-172,-80.03,-1.31,8.63,15974.825319858743,0.001146
806,1900-01-01 21:40:56.300,21.789188,39.068226,36.03,504,1262,16362,-29,-10,-116,-78.66,-1.34,8.06,16418.334385679933,0.000693
807,1900-01-01 21:40:56.400,21.789196,39.068218,36.02,694,764,14082,-63,-15,-86,-78.14,-1.41,7.62,16479.497807882373,0.001214
808,1900-01-01 21:40:56.500,21.789204,39.068211,36.01,-718,-672,19184,-20,-134,-61,-77.67,-1.18,6.77,16376.697225020678,0.001146
809,1900-01-01 21:40:56.600,21.789209,39.068207,35.97,-1150,-874,16642,-42,-24,-37,-77.37,-0.97,5.98,16050.736307098188,0.000693
810,1900-01-01 21:40:56.700,21.789217,39.068199,36.07,-172,-1512,14736,-44,63,-4,-77.27,-1.07,5.17,16684.385634478724,0.001214
811,1900-01-01 21:40:56.800,21.789225,39.068195,36.2,550,-1176,16026,-67,46,25,-77.34,-1.25,4.14,16076.72080991643,0.000981
812,1900-01-01 21:40:56.900,21.789232,39.068188,36.3,-124,-2560,17010,-11,-7,39,-77.53,-1.2,3.0,16088.137617511855,0.001062
813,1900-01-01 21:40:57.000,21.789238,39.06818,36.35,-86,-1270,15546,12,63,44,-77.81,-1.31,2.2,17068.55576784398,0.001062
814,1900-01-01 21:40:57.100,21.789246,39.068176,36.28,1002,-1410,17270,12,-153,48,-78.08,-1.51,1.77,17073.789268935,0.000981
815,1900-01-01 21:40:57.200,21.789253,39.068169,36.37,-274,-1772,17382,45,-51,49,-78.36,-1.32,1.39,16331.209263248084,0.001062
816,1900-01-01 21:40:57.300,21.789261,39.068165,36.39,402,-1472,16246,51,66,49,-78.64,-1.19,1.15,16617.547472476195,0.000981
817,1900-01-01 21:40:57.400,21.789268,39.068157,36.39,86,-710,16270,40,-63,53,-78.93,-1.07,1.05,16617.547472476195,0.001135
818,1900-01-01 21:40:57.500,21.789276,39.068153,36.37,-112,-1508,16552,14,-65,48,-79.23,-0.97,0.81,16590.477871357412,0.000981
819,1900-01-01 21:40:57.600,21.789282,39.068146,36.33,604,-818,16948,-9,37,41,-79.5,-1.02,0.59,16559.542626534105,0.000984
820,1900-01-01 21:40:57.700,21.789289,39.068142,36.35,186,-1508,16524,-21,-65,44,-79.79,-0.98,0.19,16593.710736300065,0.000881
821,1900-01-01 21:40:57.800,21.789297,39.068134,36.42,176,-1070,14448,-10,48,42,-80.05,-0.86,-0.2,16045.156901694667,0.001214
822,1900-01-01 21:40:57.900,21.789305,39.06813,36.45,490,-1584,15086,-2,23,45,-80.32,-0.75,-0.57,16041.591566923777,0.000981
823,1900-01-01 21:40:58.000,21.789312,39.068127,36.41,386,-1392,15980,15,-20,45,-80.62,-0.61,-0.91,15431.376996237244,0.000838
824,1900-01-01 21:40:58.100,21.78932,39.068119,36.41,-82,-1168,16890,-4,-24,46,-80.94,-0.51,-1.12,16040.001620947549,0.001214
825,1900-01-01 21:40:58.300,21.789337,39.068108,36.36,-250,-1386,15368,13,56,44,-81.24,-0.53,-1.35,16309.883629259897,0.002205
826,1900-01-01 21:40:58.400,21.789345,39.068104,36.34,16,-910,17018,3,-16,46,-81.52,-0.56,-1.51,16309.883629259897,0.000981
827,1900-01-01 21:40:58.500,21.789352,39.068096,36.39,274,-490,16268,1,9,45,-81.79,-0.57,-1.68,16295.735638503713,0.001135
828,1900-01-01 21:40:58.600,21.78936,39.068092,36.58,362,-1340,14666,11,72,47,-82.07,-0.58,-1.87,16297.452807110687,0.000981
829,1900-01-01 21:40:58.700,21.789368,39.068089,36.68,484,-432,16860,7,-7,42,-82.35,-0.49,-1.97,15363.506240438737,0.000942
830,1900-01-01 21:40:58.800,21.789377,39.068081,36.88,418,-1384,14188,5,134,42,-82.7,-0.6,-2.14,15415.182905175014,0.001298
831,1900-01-01 21:40:58.900,21.789385,39.068077,37.04,1556,-164,15350,-11,27,43,-82.95,-0.69,-2.24,15362.90623547511,0.000981
832,1900-01-01 21:40:59.000,21.789392,39.068069,37.28,458,-1700,18766,-48,-214,38,-83.2,-0.62,-2.38,15367.79619854454,0.001135
833,1900-01-01 21:40:59.100,21.789402,39.068066,37.34,456,442,15176,1,53,37,-83.45,-0.55,-2.58,16049.317617892668,0.001154
834,1900-01-01 21:40:59.200,21.78941,39.068062,37.51,-1402,-582,16518,-17,67,51,-83.74,-0.65,-2.65,16046.591912303373,0.000981
835,1900-01-01 21:40:59.300,21.789417,39.068054,37.49,-348,60,16042,44,-20,42,-83.96,-0.9,-2.75,15665.118703667713,0.001135
836,1900-01-01 21:40:59.400,21.789427,39.06805,37.49,-714,-162,15648,18,15,38,-84.19,-1.0,-2.59,15677.28560688999,0.001186
837,1900-01-01 21:40:59.500,21.789434,39.068043,37.47,-1894,-970,13114,3,-42,32,-84.42,-0.84,-2.58,15664.395934730455,0.001062
838,1900-01-01 21:40:59.600,21.789442,39.068039,37.47,-944,1026,13456,29,242,35,-84.66,-0.83,-2.39,14952.7075809032,0.000981
839,1900-01-01 21:40:59.700,21.789452,39.068031,37.46,3320,1036,20390,0,-13,23,-84.85,-0.59,-2.18,14951.966960905178,0.001385
840,1900-01-01 21:40:59.900,21.789467,39.068024,37.47,-1376,-1264,14922,27,249,12,-84.95,-0.63,-2.08,15128.783163228958,0.001818
841,1900-01-01 21:41:00.000,21.789474,39.068016,37.54,-4,-64,15128,-13,-10,12,-85.01,-0.81,-1.9,18162.1132030389,0.001135
842,1900-01-01 21:41:00.100,21.789482,39.068008,37.62,-140,-360,18770,-10,-77,10,-85.09,-0.74,-1.88,16811.85534080043,0.001214
843,1900-01-01 21:41:00.200,21.78949,39.068005,37.71,104,-4,18162,-14,-10,7,-85.14,-0.75,-1.85,16812.176539639357,0.000942
844,1900-01-01 21:41:00.300,21.789497,39.067997,37.72,162,-932,16808,-14,-98,8,-85.2,-0.77,-1.91,16812.56018576588,0.001135
845,1900-01-01 21:41:00.400,21.789505,39.067993,37.76,154,-522,15312,-9,-13,11,-85.27,-0.67,-1.92,16704.868033001636,0.000981
846,1900-01-01 21:41:00.500,21.789513,39.067986,37.77,242,338,15546,-4,29,12,-85.34,-0.57,-1.9,16704.943699396295,0.001146
847,1900-01-01 21:41:00.600,21.789522,39.067982,37.8,-288,-700,16696,12,-20,11,-85.41,-0.52,-1.85,15593.688595069481,0.001083
848,1900-01-01 21:41:00.700,21.78953,39.067974,37.83,978,-392,17316,31,15,10,-85.48,-0.53,-1.7,16698.622218614324,0.001214
849,1900-01-01 21:41:00.800,21.789537,39.067966,37.84,-444,-68,15588,13,35,4,-85.51,-0.44,-1.39,17098.920199825487,0.001135
850,1900-01-01 21:41:00.900,21.789545,39.067963,37.86,-586,270,17272,-20,-72,-5,-85.5,-0.32,-1.16,17093.213624125805,0.000942
851,1900-01-01 21:41:01.000,21.789553,39.067955,37.9,-104,-586,17092,5,12,-3,-85.48,-0.14,-1.16,17095.210674338003,0.001214
852,1900-01-01 21:41:01.100,21.78956,39.067947,38.0,-192,970,16602,-15,-10,-3,-85.45,-0.1,-1.06,17095.101286625944,0.001135
853,1900-01-01 21:41:01.200,21.789568,39.067944,37.98,32,524,18030,-56,-89,1,-85.46,-0.07,-1.04,16603.263655076975,0.000942
854,1900-01-01 21:41:01.300,21.789576,39.067936,37.82,-182,-1062,15900,-4,72,6,-85.48,0.03,-1.35,15901.3194421092,0.001214
855,1900-01-01 21:41:01.400,21.789583,39.067932,37.7,-1476,94,13738,-23,8,16,-85.54,-0.02,-1.47,15936.466609634646,0.000881
856,1900-01-01 21:41:01.500,21.789591,39.067924,37.61,314,-1086,15516,4,58,21,-85.63,-0.07,-1.69,15629.185263474228,0.001214
857,1900-01-01 21:41:01.600,21.789598,39.067917,37.59,-556,-1068,16550,15,-31,12,-85.7,-0.04,-1.75,15594.180709482624,0.001062
858,1900-01-01 21:41:01.700,21.789606,39.067913,37.61,354,-258,15592,-13,36,17,-85.79,0.12,-1.68,16262.798160218308,0.000981
859,1900-01-01 21:41:01.800,21.789614,39.067905,37.61,-38,184,16246,-20,13,13,-85.88,0.27,-1.68,16556.32447133119,0.001214
860,1900-01-01 21:41:01.900,21.789621,39.067898,37.58,-282,-738,16594,21,-27,4,-85.95,0.29,-1.66,16597.9186647001,0.001062
861,1900-01-01 21:41:02.000,21.789627,39.067894,37.56,252,-456,16840,-12,72,3,-85.97,0.19,-1.47,16595.070713919842,0.000785
862,1900-01-01 21:41:02.100,21.789635,39.067886,37.61,714,684,18384,5,-1,3,-86.01,0.04,-1.45,16778.467868074247,0.001214
863,1900-01-01 21:41:02.200,21.789642,39.067883,37.73,56,180,16006,-28,-6,4,-86.02,-0.08,-1.45,16779.999642431463,0.000838
864,1900-01-01 21:41:02.300,21.78965,39.067875,37.88,110,-60,16778,-3,-102,2,-86.03,-0.15,-1.56,16566.956026983353,0.001214
865,1900-01-01 21:41:02.400,21.789658,39.067867,38.1,256,-106,16564,16,-40,4,-86.05,-0.25,-1.58,16008.159544432334,0.001214
866,1900-01-01 21:41:02.500,21.789667,39.067863,38.24,356,416,13562,0,110,6,-86.09,-0.35,-1.45,16566.14342567394,0.001083
867,1900-01-01 21:41:02.600,21.789675,39.067856,38.25,432,-224,15692,-19,7,-2,-86.12,-0.28,-1.49,15962.404956647353,0.001146
868,1900-01-01 21:41:02.700,21.789682,39.067848,38.31,-616,-74,17818,-20,-72,1,-86.11,-0.07,-1.58,15963.11561068202,0.001135
869,1900-01-01 21:41:02.800,21.78969,39.067844,38.32,200,-694,15960,-19,90,5,-86.12,-0.13,-1.63,16086.803038515764,0.000981
870,1900-01-01 21:41:02.900,21.789698,39.067837,38.32,222,-1170,17852,-1,-2,3,-86.15,-0.33,-1.71,16798.353847922124,0.001146
871,1900-01-01 21:41:03.000,21.789703,39.067829,38.23,-106,14,16084,1,64,3,-86.15,-0.56,-1.73,16799.532493495168,0.000996
872,1900-01-01 21:41:03.100,21.789711,39.067825,38.19,-20,-702,16784,4,-29,3,-86.17,-0.71,-1.71,16941.574661170078,0.000981
873,1900-01-01 21:41:03.200,21.789719,39.067818,38.12,1130,312,16938,10,-63,0,-86.19,-0.88,-1.63,16948.003540240366,0.001146
874,1900-01-01 21:41:03.300,21.789726,39.06781,38.09,582,-268,17382,-6,-28,2,-86.2,-0.8,-1.55,16948.003540240366,0.001135
875,1900-01-01 21:41:03.400,21.789734,39.067802,38.01,1020,-16,17122,22,-65,1,-86.24,-0.7,-1.57,16948.003540240366,0.001214
876,1900-01-01 21:41:03.600,21.789749,39.067791,38.0,-70,138,15414,6,-25,4,-86.25,-0.77,-1.45,16400.521089282498,0.002018
877,1900-01-01 21:41:03.700,21.789757,39.067783,37.97,404,-418,14500,-6,71,-1,-86.28,-0.77,-1.47,15423.540708929322,0.001214
878,1900-01-01 21:41:03.800,21.789762,39.06778,38.04,608,-594,16388,-9,31,-5,-86.27,-0.73,-1.53,15424.958217123312,0.000636
879,1900-01-01 21:41:03.900,21.78977,39.067772,38.19,494,-224,14636,8,43,3,-86.29,-0.82,-1.52,14869.03103769711,0.001214
880,1900-01-01 21:41:04.000,21.789778,39.067764,38.22,132,-512,16786,0,63,2,-86.31,-0.83,-1.52,16406.200535163527,0.001214
881,1900-01-01 21:41:04.100,21.789785,39.067757,38.25,1038,-778,14852,7,157,4,-86.34,-0.9,-1.5,16794.325351141677,0.001062
882,1900-01-01 21:41:04.200,21.789793,39.067753,38.28,-812,-708,17764,-13,-65,1,-86.35,-0.98,-1.47,16988.23027863703,0.000981
883,1900-01-01 21:41:04.300,21.789801,39.067745,38.35,-34,-492,16980,47,-42,3,-86.36,-1.01,-1.42,17052.737727414915,0.001214
884,1900-01-01 21:41:04.500,21.789818,39.067734,38.62,1024,1058,17038,-36,-121,3,-86.4,-1.11,-1.07,17045.136080418953,0.002205
885,1900-01-01 21:41:04.600,21.789825,39.067726,38.71,-34,-924,17100,2,-48,-3,-86.4,-0.85,-1.25,16987.135956364156,0.001135
886,1900-01-01 21:41:04.700,21.789833,39.067719,38.8,18,54,15104,-20,33,-1,-86.36,-0.79,-1.23,17053.612637796134,0.001146
887,1900-01-01 21:41:04.800,21.789841,39.067711,38.93,974,-1092,14574,-7,38,4,-86.39,-0.74,-1.4,17111.390942877788,0.001214
888,1900-01-01 21:41:05.000,21.789856,39.067699,39.02,378,-624,17658,-19,-58,-3,-86.41,-0.77,-1.48,15107.150757174564,0.002078
889,1900-01-01 21:41:05.100,21.789864,39.067692,39.1,-154,-190,18986,14,-95,1,-86.43,-0.67,-1.55,17392.811158636778,0.001146
890,1900-01-01 21:41:05.200,21.789871,39.067684,39.08,-182,-308,14546,4,75,4,-86.43,-0.65,-1.53,17660.76849970012,0.001135
891,1900-01-01 21:41:05.300,21.789879,39.06768,39.01,-54,-260,17390,3,-26,2,-86.46,-0.53,-1.49,17393.409096551488,0.000981
892,1900-01-01 21:41:05.400,21.789886,39.067673,38.96,448,-1038,18082,14,-60,4,-86.48,-0.41,-1.47,17393.679541718597,0.001062
893,1900-01-01 21:41:05.600,21.789902,39.067661,38.8,-906,-592,16720,8,7,7,-86.5,-0.23,-1.41,17394.39461435781,0.002168
894,1900-01-01 21:41:05.700,21.789909,39.067654,38.74,-488,-44,17622,-31,-68,3,-86.53,-0.18,-1.31,17624.474006335622,0.001062
895,1900-01-01 21:41:05.800,21.789917,39.067646,38.69,-292,66,16348,-9,-42,4,-86.53,-0.18,-1.39,16722.60745218879,0.001214
896,1900-01-01 21:41:05.900,21.789925,39.067642,38.61,384,368,17898,-7,52,-1,-86.53,-0.11,-1.42,17623.555827357883,0.000981
897,1900-01-01 21:41:06.000,21.789932,39.067635,38.53,266,-902,16570,-7,8,2,-86.54,-0.12,-1.46,16592.871963587255,0.001062
898,1900-01-01 21:41:06.100,21.78994,39.067627,38.47,-230,-918,18904,11,-48,0,-86.58,0.01,-1.52,16594.590684918985,0.001214
899,1900-01-01 21:41:06.200,21.789948,39.067623,38.51,-678,-840,16446,-15,-27,3,-86.6,0.16,-1.5,16470.77581657889,0.000981
900,1900-01-01 21:41:06.300,21.789955,39.067616,38.66,44,-936,16252,48,-55,3,-86.62,0.25,-1.6,16273.753101236358,0.001062
901,1900-01-01 21:41:06.400,21.789965,39.067608,38.83,156,598,14894,-22,19,1,-86.61,0.27,-1.37,16252.4318180388,0.001385
902,1900-01-01 21:41:06.500,21.789972,39.067604,39.06,374,-110,15228,-9,59,5,-86.65,0.36,-1.38,15228.460854597224,0.000881
903,1900-01-01 21:41:06.600,21.78998,39.067596,39.34,20,-24,18698,-25,-45,-3,-86.65,0.35,-1.41,15228.410422627832,0.001214
904,1900-01-01 21:41:06.700,21.789989,39.067589,39.41,-788,-266,14520,12,9,3,-86.66,0.28,-1.5,16039.03313794195,0.001234
905,1900-01-01 21:41:06.800,21.789997,39.067585,39.39,-580,-304,16030,-16,10,6,-86.67,0.39,-1.54,16040.316580416984,0.000981
906,1900-01-01 21:41:06.900,21.790005,39.067577,39.33,-510,-172,16328,5,86,1,-86.7,0.34,-1.61,16040.991739914338,0.001214
907,1900-01-01 21:41:07.000,21.790012,39.06757,39.13,366,-592,14574,-2,34,4,-86.7,0.25,-1.68,16346.686147351089,0.001062
908,1900-01-01 21:41:07.100,21.79002,39.067566,38.9,24,-622,17218,-16,-22,-1,-86.71,0.34,-1.65,16712.50561705216,0.000981
909,1900-01-01 21:41:07.200,21.79003,39.067558,38.81,-1006,-1042,17928,22,-39,5,-86.74,0.39,-1.7,17228.19096713291,0.001385
910,1900-01-01 21:41:07.300,21.790037,39.067554,38.79,160,-386,16702,1,40,2,-86.81,0.43,-1.58,17484.744664992966,0.000881
911,1900-01-01 21:41:07.500,21.790052,39.067543,38.71,-238,-98,17852,10,-52,3,-86.84,0.55,-1.55,17485.88116166869,0.002018
912,1900-01-01 21:41:07.600,21.79006,39.067535,38.62,-130,-178,17480,-16,12,8,-86.85,0.64,-1.5,16787.42517481463,0.001214
913,1900-01-01 21:41:07.700,21.79007,39.067528,38.5,-790,-686,14592,5,156,5,-86.9,0.68,-1.54,16788.218130581936,0.001326
914,1900-01-01 21:41:07.800,21.790077,39.067524,38.3,-182,-1088,16782,4,-38,2,-86.91,0.56,-1.55,15917.830379797368,0.000881
915,1900-01-01 21:41:08.000,21.790092,39.067513,38.24,-362,-390,15902,-2,6,3,-86.94,0.64,-1.59,14624.58395989438,0.002018
916,1900-01-01 21:41:08.100,21.7901,39.067505,38.21,86,-762,14604,6,41,2,-86.96,0.73,-1.59,15911.769983254535,0.001214
917,1900-01-01 21:41:08.200,21.790108,39.067497,38.21,-826,-424,13688,23,33,4,-86.98,0.72,-1.52,15915.957903940309,0.001214
918,1900-01-01 21:41:08.300,21.790115,39.067493,38.16,-536,-396,16340,12,-48,1,-87.02,0.97,-1.37,16359.355610781251,0.000881
919,1900-01-01 21:41:08.400,21.790123,39.067486,38.05,-690,-204,17550,0,34,2,-87.03,1.02,-1.29,16359.355610781251,0.001146
920,1900-01-01 21:41:08.500,21.790131,39.067478,37.98,-812,50,16508,1,-21,1,-87.04,0.84,-1.33,16353.584072000853,0.001214
921,1900-01-01 21:41:08.600,21.790138,39.067474,37.92,194,-514,14800,-19,3,-2,-87.02,0.68,-1.32,16516.856964931314,0.000881
922,1900-01-01 21:41:08.700,21.790146,39.067467,37.78,338,-414,15618,2,23,1,-87.03,0.75,-1.41,15626.327911572827,0.001146
923,1900-01-01 21:41:08.800,21.790154,39.067459,37.69,-348,-508,16626,-18,-55,-2,-87.03,0.83,-1.39,15626.327911572827,0.001214
924,1900-01-01 21:41:08.900,21.790161,39.067455,37.63,-298,-222,14490,-1,68,2,-87.04,0.94,-1.44,16197.669708942703,0.000881
925,1900-01-01 21:41:09.000,21.790167,39.067448,37.59,-996,-398,16190,12,60,2,-87.04,0.91,-1.42,16197.427079632123,0.000984
926,1900-01-01 21:41:09.200,21.790182,39.067436,37.43,-300,-110,17492,-26,-34,-2,-87.04,0.89,-1.39,16197.390160146171,0.002078
927,1900-01-01 21:41:09.300,21.79019,39.067429,37.37,546,-388,15734,-11,51,-6,-87.03,0.88,-1.46,16207.664976794158,0.001146
928,1900-01-01 21:41:09.400,21.790197,39.067421,37.32,396,-966,16796,0,60,0,-87.02,0.95,-1.55,16638.780484158087,0.001135
929,1900-01-01 21:41:09.500,21.790205,39.067417,37.38,-556,-854,16200,10,-18,1,-87.02,0.98,-1.48,16651.73312301155,0.000981
930,1900-01-01 21:41:09.700,21.790218,39.067402,37.33,-246,-546,16628,-10,26,1,-87.03,1.06,-1.35,16651.73312301155,0.002119
931,1900-01-01 21:41:09.800,21.790226,39.067398,37.24,-592,-886,17582,20,-60,-4,-87.03,1.2,-1.37,16224.359216930572,0.000981
932,1900-01-01 21:41:09.900,21.790234,39.06739,37.17,-98,208,13214,25,78,3,-87.03,1.2,-1.22,16638.780484158087,0.001214
933,1900-01-01 21:41:10.100,21.790247,39.067379,36.77,546,-1076,15834,20,98,2,-87.06,1.26,-1.13,17286.814975581823,0.001838
934,1900-01-01 21:41:10.200,21.790255,39.067371,36.62,-630,-2,17260,-6,-136,-1,-87.05,1.21,-1.04,17264.095110952094,0.001214
935,1900-01-01 21:41:10.300,21.790262,39.067368,36.47,-376,-1204,18334,15,-116,-3,-87.03,1.25,-1.13,17265.791033138332,0.000838
936,1900-01-01 21:41:10.500,21.790276,39.067352,36.31,-658,228,18192,8,-74,3,-87.03,1.21,-1.07,17701.230917650897,0.00227
937,1900-01-01 21:41:10.600,21.790283,39.067348,36.04,-260,-242,15162,11,20,1,-87.06,1.16,-1.01,17694.011755393403,0.000881
938,1900-01-01 21:41:10.700,21.790289,39.067341,36.02,-672,-24,17690,-1,-59,-1,-87.04,1.26,-0.96,17408.97021652918,0.000984
939,1900-01-01 21:41:10.900,21.790304,39.067329,35.99,-322,546,17402,-3,-88,-3,-87.03,1.43,-0.93,17404.99537489166,0.002078
940,1900-01-01 21:41:11.000,21.79031,39.067322,35.95,-492,-28,16652,9,44,2,-87.03,1.38,-0.96,17408.97021652918,0.000984
941,1900-01-01 21:41:11.100,21.790318,39.067318,35.83,-304,292,17960,4,56,1,-87.04,1.41,-0.96,16655.136504994487,0.000981
942,1900-01-01 21:41:11.300,21.790333,39.067307,35.39,-710,-800,13332,14,115,1,-87.05,1.39,-1.02,16663.156003590677,0.002018
943,1900-01-01 21:41:11.400,21.790339,39.067299,35.33,-292,-360,16180,10,-34,-1,-87.04,1.5,-0.91,17929.68053256945,0.001062
944,1900-01-01 21:41:11.500,21.790346,39.067295,35.28,-1106,-1962,18336,79,-184,6,-87.07,1.85,-0.89,17948.14040506704,0.000881
945,1900-01-01 21:41:11.600,21.790352,39.067287,35.26,-1080,714,17912,38,37,5,-87.11,2.37,-0.54,17948.14040506704,0.001062
946,1900-01-01 21:41:11.800,21.790367,39.067276,35.04,-1134,4,18092,-44,6,4,-87.13,2.45,-0.22,17946.113673996384,0.002018
947,1900-01-01 21:41:11.900,21.790373,39.067272,34.53,-620,-402,17898,0,-17,-3,-87.11,2.34,-0.44,17933.88903723897,0.000785
948,1900-01-01 21:41:12.000,21.79038,39.067265,34.46,-1440,648,16686,-14,41,3,-87.12,2.39,-0.41,17666.00735876672,0.001062
949,1900-01-01 21:41:12.100,21.790386,39.067261,34.32,-1266,-638,17616,-3,5,6,-87.14,2.52,-0.5,16798.29586595021,0.000785
950,1900-01-01 21:41:12.200,21.790394,39.067253,34.26,-1490,-668,16738,-7,-72,1,-87.17,2.5,-0.6,16802.838093607876,0.001214
951,1900-01-01 21:41:12.300,21.7904,39.067249,34.08,-1364,-236,16420,2,3,-3,-87.16,2.57,-0.63,16807.196910847448,0.000785
952,1900-01-01 21:41:12.500,21.790413,39.067238,33.71,-1742,-318,18670,14,-78,1,-87.18,2.92,-0.68,16831.40909133873,0.001838
953,1900-01-01 21:41:12.600,21.790419,39.06723,33.61,-2004,-194,15678,19,24,2,-87.18,3.21,-0.54,18368.41517387932,0.001062
954,1900-01-01 21:41:12.700,21.790426,39.067226,33.53,-2780,-622,18566,16,-153,2,-87.21,3.73,-0.44,18380.971573885858,0.000881
955,1900-01-01 21:41:12.800,21.790432,39.067219,33.45,-2378,-328,18256,4,-108,0,-87.23,3.89,-0.41,15963.307176146176,0.000984
956,1900-01-01 21:41:12.900,21.79044,39.067215,33.15,-2116,524,14712,-16,21,-1,-87.21,4.1,-0.35,16717.248697079314,0.000981
957,1900-01-01 21:41:13.000,21.790445,39.067207,33.08,-2892,1136,15784,-40,18,0,-87.2,4.4,-0.39,16714.341865595547,0.000996
958,1900-01-01 21:41:13.100,21.790451,39.067204,32.99,-1896,-764,16544,12,35,-4,-87.19,4.63,-0.56,16122.580562676683,0.000736
959,1900-01-01 21:41:13.200,21.790459,39.0672,32.87,-2626,102,17596,0,-83,0,-87.18,4.89,-0.54,16162.760779025346,0.000981
960,1900-01-01 21:41:13.300,21.790464,39.067192,32.72,-2364,16,15948,14,-26,6,-87.21,5.17,-0.58,16722.029661497436,0.000996
961,1900-01-01 21:41:13.400,21.79047,39.067188,32.55,-2678,-776,15386,5,61,0,-87.22,5.46,-0.57,16132.608096646989,0.000785
962,1900-01-01 21:41:13.500,21.790478,39.067181,32.29,-2426,-192,16692,6,-17,1,-87.23,5.75,-0.6,15595.408170355786,0.001146
963,1900-01-01 21:41:13.700,21.790489,39.067169,31.86,-1826,-498,15414,4,-15,-3,-87.22,6.02,-0.55,15604.926657950045,0.001741
964,1900-01-01 21:41:13.800,21.790495,39.067165,31.18,-2164,-114,15112,-3,110,-1,-87.21,6.27,-0.55,16019.247048472658,0.000785
965,1900-01-01 21:41:13.900,21.790501,39.067162,30.73,-2634,-112,16354,5,-79,0,-87.23,6.37,-0.54,15639.074397163024,0.000736
966,1900-01-01 21:41:14.000,21.790506,39.067158,30.4,-2002,290,15872,6,54,3,-87.23,6.62,-0.52,15998.274031907316,0.000693
967,1900-01-01 21:41:14.100,21.790512,39.06715,30.07,-1348,128,15510,-3,86,0,-87.26,6.58,-0.48,15973.12956186107,0.001062
968,1900-01-01 21:41:14.200,21.790518,39.067146,29.6,-1790,418,16548,-2,21,1,-87.25,6.47,-0.51,15613.474437164843,0.000785
969,1900-01-01 21:41:14.300,21.790524,39.067142,29.19,-1082,-326,15168,-6,47,-1,-87.25,6.41,-0.53,15571.210100695449,0.000785
970,1900-01-01 21:41:14.400,21.790529,39.067139,28.59,-1872,-60,15260,17,67,1,-87.26,6.34,-0.55,16032.352416286263,0.000636
971,1900-01-01 21:41:14.500,21.790535,39.067135,27.78,-1378,-398,17522,5,-80,3,-87.25,6.24,-0.45,16040.845488938543,0.000785
972,1900-01-01 21:41:14.600,21.790539,39.067131,26.85,-1888,60,15932,6,8,5,-87.29,6.21,-0.39,16762.131845323256,0.000607
973,1900-01-01 21:41:14.700,21.790545,39.067127,26.69,-1850,-240,16658,6,-26,3,-87.29,6.16,-0.38,17102.049584771998,0.000785
974,1900-01-01 21:41:14.800,21.79055,39.06712,26.49,-1034,-666,17000,5,17,0,-87.3,6.02,-0.35,16760.52099428893,0.000912
975,1900-01-01 21:41:14.900,21.790554,39.067116,26.14,-1902,130,17904,8,-67,2,-87.31,5.92,-0.3,17052.854541102497,0.000607
