Counter,Time,Latitude,Longitude,Speed(km/h),Ax,Ay,Az,Gx,Gy,Gz,Yaw,Pitch,Roll,acceleration_magnitude,distance
1,1900-01-01 21:52:16.500,21.797155,39.075054,0.24,40,58,16838,0,-3,0,0.01,-0.01,0.4,0.0,0.0
2,1900-01-01 21:52:16.600,21.797157,39.075054,0.17,-22,-304,15728,-1,0,0,0.01,-0.01,0.36,0.0,0.000222
3,1900-01-01 21:52:16.700,21.797159,39.075054,0.17,44,-266,15924,-1,-2,0,0.01,-0.0,0.34,16072.645581857394,0.000222
4,1900-01-01 21:52:16.800,21.797161,39.075054,0.26,-34,-144,16644,1,0,1,0.01,-0.0,0.31,16074.216123966979,0.000222
5,1900-01-01 21:52:16.900,21.797161,39.075054,0.53,4,250,16072,-3,-1,-1,0.01,-0.0,0.29,16138.666735514431,0.0
6,1900-01-01 21:52:17.000,21.797163,39.075058,0.26,-28,-390,16138,-1,1,1,0.01,-0.0,0.26,16140.346588595921,0.000469
7,1900-01-01 21:52:17.100,21.797163,39.075058,0.24,-72,102,16928,0,-2,0,0.01,0.01,0.23,16140.32676249152,0.0
8,1900-01-01 21:52:17.200,21.797165,39.075058,0.27,46,298,16140,-2,0,-1,0.01,0.01,0.21,16612.336741109,0.000222
9,1900-01-01 21:52:17.300,21.797165,39.075058,0.12,-12,-86,16612,1,0,0,0.01,0.01,0.19,16613.02332509047,0.0
10,1900-01-01 21:52:17.400,21.797167,39.075058,0.02,-44,184,16930,-1,0,-1,0.01,0.01,0.17,16299.103533630308,0.000222
11,1900-01-01 21:52:17.500,21.797167,39.075058,0.23,52,388,16298,-3,-3,0,0.01,0.01,0.15,16612.18745379428,0.0
12,1900-01-01 21:52:17.600,21.797167,39.075058,0.26,90,-296,16020,0,1,-1,0.02,0.01,0.14,16753.010475732415,0.0
13,1900-01-01 21:52:17.700,21.797169,39.075058,0.28,-84,78,16752,2,-2,0,0.02,0.01,0.12,16299.594841590388,0.000222
14,1900-01-01 21:52:17.800,21.797169,39.075058,0.15,0,338,16998,-1,1,-1,0.02,0.01,0.1,16752.504409789002,0.0
15,1900-01-01 21:52:17.900,21.797169,39.075058,0.45,118,222,16098,-3,-1,0,0.02,0.01,0.1,16998.958438680882,0.0
16,1900-01-01 21:52:18.000,21.797169,39.075058,0.21,-30,130,17202,0,0,1,0.02,0.01,0.08,16999.452579421493,0.0
17,1900-01-01 21:52:18.100,21.797169,39.075058,0.32,-30,178,17076,1,-1,0,0.02,0.01,0.06,16946.937776483395,0.0
18,1900-01-01 21:52:18.200,21.797169,39.075058,0.13,-10,262,16946,-1,0,-1,0.02,0.01,0.06,16946.501585873117,0.0
19,1900-01-01 21:52:18.300,21.797169,39.075058,0.4,104,-226,15996,-1,0,0,0.02,0.01,0.06,16768.945822561418,0.0
20,1900-01-01 21:52:18.400,21.797169,39.075058,0.15,6,-266,16256,1,2,0,0.02,0.01,0.04,16257.573988759823,0.0
21,1900-01-01 21:52:18.500,21.797169,39.075058,0.43,10,270,16768,-2,0,1,0.02,-0.0,0.04,16257.583215226057,0.0
22,1900-01-01 21:52:18.600,21.797169,39.075058,0.36,64,-252,15886,-2,-2,0,0.03,0.01,0.03,16570.586712606164,0.0
23,1900-01-01 21:52:18.700,21.797171,39.075058,0.39,20,-138,16570,1,2,-1,0.03,0.01,0.02,16570.586712606164,0.000222
24,1900-01-01 21:52:18.800,21.797171,39.075058,0.38,28,166,16960,-2,1,0,0.03,0.01,0.02,15936.62210131118,0.0
25,1900-01-01 21:52:18.900,21.797171,39.075058,0.28,-76,-208,15936,1,4,0,0.03,0.01,0.03,16570.418099734237,0.0
26,1900-01-01 21:52:19.000,21.797171,39.075058,0.24,40,-116,15772,-1,-1,0,0.03,0.01,0.01,16404.013289436218,0.0
27,1900-01-01 21:52:19.100,21.797171,39.075058,0.35,-26,-6,17138,0,-3,0,0.03,0.02,0.0,16302.433437987103,0.0
28,1900-01-01 21:52:19.200,21.797171,39.075058,0.13,20,252,16404,-1,0,-1,0.03,0.02,0.0,16404.085100974087,0.0
29,1900-01-01 21:52:19.302,21.797173,39.075058,0.34,-140,-126,16302,1,-1,0,0.04,0.01,0.01,16404.02170200954,0.000222
30,1900-01-01 21:52:19.402,21.797173,39.075058,0.51,-64,-46,17086,2,2,-1,0.04,0.03,-0.01,16312.129719935409,0.0
31,1900-01-01 21:52:19.502,21.797173,39.075058,0.18,72,174,16312,-3,-1,-1,0.04,0.01,-0.01,16302.590100962485,0.0
32,1900-01-01 21:52:19.602,21.797173,39.075058,0.33,-46,-140,15924,1,0,0,0.05,0.01,-0.01,16312.129719935409,0.0
33,1900-01-01 21:52:19.702,21.797165,39.075062,0.0,-58,-136,16076,0,2,0,0.05,0.02,-0.01,16312.952032051096,0.000981
34,1900-01-01 21:52:19.802,21.797163,39.075062,0.0,76,224,16616,-4,-3,0,0.05,0.02,-0.02,16502.485994540337,0.000222
35,1900-01-01 21:52:19.902,21.797159,39.075062,0.0,28,260,16558,-1,12,-1,0.06,0.0,-0.03,16503.595971787483,0.000445
36,1900-01-01 21:52:20.002,21.797159,39.075062,0.0,-72,-118,16502,1,-5,1,0.06,0.01,-0.03,16503.543983035885,0.0
37,1900-01-01 21:52:20.102,21.797159,39.075062,0.0,-50,322,16064,-4,-5,0,0.05,0.01,-0.03,16206.419592248005,0.0
38,1900-01-01 21:52:20.202,21.797159,39.075062,0.0,60,108,16206,-2,-1,-1,0.06,0.01,-0.02,16064.493642813644,0.0
39,1900-01-01 21:52:20.300,21.797159,39.075062,0.0,-44,-154,15790,-1,0,0,0.06,0.01,-0.03,16064.17990437109,0.0
40,1900-01-01 21:52:20.400,21.797159,39.075062,0.0,2,-152,15864,0,0,0,0.06,0.01,-0.04,16206.118721026327,0.0
41,1900-01-01 21:52:20.500,21.797159,39.075062,0.0,-48,-62,16644,2,-2,-1,0.06,0.01,-0.04,16088.762910802061,0.0
42,1900-01-01 21:52:20.600,21.797159,39.075062,0.0,30,330,16272,-2,0,1,0.06,0.01,-0.04,16272.710038589146,0.0
43,1900-01-01 21:52:20.700,21.797157,39.075062,0.0,-38,-168,16088,-2,6,-1,0.06,0.01,-0.03,16644.123167052087,0.000222
44,1900-01-01 21:52:20.800,21.797159,39.075062,0.0,16,-158,16910,2,-1,-2,0.06,0.02,-0.04,16370.233718551486,0.000222
45,1900-01-01 21:52:20.900,21.797159,39.075062,0.0,22,86,17086,0,-2,0,0.06,0.0,-0.06,16370.77029342236,0.0
46,1900-01-01 21:52:21.000,21.797159,39.075062,0.0,14,436,16370,-3,1,0,0.06,0.03,-0.03,16370.77029342236,0.0
47,1900-01-01 21:52:21.100,21.797159,39.075062,0.0,152,-248,15772,-3,0,-1,0.06,0.01,-0.02,16370.24068240904,0.0
48,1900-01-01 21:52:21.200,21.797159,39.075062,0.0,-100,-304,16152,1,0,1,0.07,0.01,-0.06,16215.244555664278,0.0
49,1900-01-01 21:52:21.300,21.797159,39.075062,0.0,34,252,17136,-1,0,0,0.07,0.02,-0.06,16214.556793202828,0.0
50,1900-01-01 21:52:21.400,21.797159,39.075062,0.0,58,198,16214,-1,1,-2,0.07,0.01,-0.03,16214.041568961145,0.0
51,1900-01-01 21:52:21.500,21.797159,39.075062,0.0,-32,-130,16516,1,2,0,0.08,0.01,-0.04,16406.03230522237,0.0
52,1900-01-01 21:52:21.600,21.797159,39.075062,0.0,-130,-18,15686,4,-1,-2,0.08,0.02,-0.06,16406.03230522237,0.0
53,1900-01-01 21:52:21.700,21.797159,39.075062,0.0,-154,6,16406,1,0,-1,0.08,0.01,-0.05,16516.03209006328,0.0
54,1900-01-01 21:52:21.800,21.797159,39.075058,0.0,90,62,16986,-3,-2,1,0.08,0.02,-0.04,16406.002194319004,0.000413
55,1900-01-01 21:52:21.900,21.797159,39.075058,0.0,-6,192,16672,-2,0,-1,0.08,0.03,-0.04,16406.24795619035,0.0
56,1900-01-01 21:52:22.000,21.797161,39.075058,0.0,180,-124,16042,-4,0,1,0.08,0.01,-0.04,16042.731687589867,0.000222
57,1900-01-01 21:52:22.100,21.797161,39.075058,0.0,164,-234,15654,-2,2,0,0.08,0.02,-0.04,16042.678704007008,0.0
58,1900-01-01 21:52:22.200,21.797161,39.075058,0.0,80,-256,15674,-1,2,0,0.08,0.02,-0.03,16042.678704007008,0.0
59,1900-01-01 21:52:22.300,21.797161,39.075058,0.0,-76,-8,16920,3,-3,0,0.08,0.01,-0.05,16356.14331069522,0.0
60,1900-01-01 21:52:22.400,21.797161,39.075058,0.0,-74,230,16892,-2,-2,1,0.08,0.02,-0.06,16356.050868103828,0.0
61,1900-01-01 21:52:22.500,21.797161,39.075058,0.0,68,358,16356,-2,3,-1,0.08,0.03,-0.06,16892.532314605764,0.0
62,1900-01-01 21:52:22.600,21.797161,39.075058,0.0,40,-252,15930,-2,1,-1,0.09,0.02,-0.04,16356.560029541664,0.0
63,1900-01-01 21:52:22.700,21.797161,39.075058,0.0,44,128,16934,-5,-3,1,0.09,0.02,-0.06,16118.408606310984,0.0
64,1900-01-01 21:52:22.800,21.797161,39.075058,0.0,168,106,16118,-1,-1,0,0.09,0.01,-0.06,16118.050750633589,0.0
65,1900-01-01 21:52:22.900,21.797161,39.075058,0.0,-86,-62,15672,0,-1,0,0.09,0.01,-0.06,16118.061173726821,0.0
66,1900-01-01 21:52:23.000,21.797161,39.075058,0.0,20,-6,17466,1,3,0,0.09,0.03,-0.06,16094.131849838934,0.0
67,1900-01-01 21:52:23.100,21.797161,39.075058,0.0,156,-114,16094,-2,0,-1,0.09,0.02,-0.05,16094.131849838934,0.0
68,1900-01-01 21:52:23.200,21.797163,39.075058,0.0,-84,-100,15586,0,-2,-1,0.1,0.02,-0.06,16252.015998023138,0.000222
69,1900-01-01 21:52:23.300,21.797163,39.075058,0.0,68,72,17508,-1,5,1,0.1,0.03,-0.06,16094.325708149441,0.0
70,1900-01-01 21:52:23.400,21.797163,39.075058,0.0,22,278,16252,-2,4,-1,0.1,0.02,-0.06,16252.039010536493,0.0
71,1900-01-01 21:52:23.500,21.797163,39.075058,0.0,-112,-130,15756,-1,0,1,0.1,0.03,-0.06,16256.083661202043,0.0
72,1900-01-01 21:52:23.600,21.797163,39.075058,0.0,44,28,17466,1,1,0,0.1,0.03,-0.06,16252.027196629964,0.0
73,1900-01-01 21:52:23.700,21.797163,39.075058,0.0,64,20,16256,-2,0,-1,0.1,0.03,-0.04,16256.071850234915,0.0
74,1900-01-01 21:52:23.800,21.797163,39.075058,0.0,-62,-168,15292,-1,-4,0,0.1,0.02,-0.04,16256.083661202043,0.0
75,1900-01-01 21:52:23.900,21.797163,39.075058,0.0,64,124,17548,5,1,-2,0.11,0.02,-0.04,16256.591155589784,0.0
76,1900-01-01 21:52:24.000,21.797163,39.075058,0.0,-68,344,16230,-4,-6,0,0.12,0.01,-0.03,16230.616131250224,0.0
77,1900-01-01 21:52:24.100,21.797163,39.075058,0.0,-132,350,17352,1,3,-2,0.13,0.03,-0.01,16231.010442976125,0.0
78,1900-01-01 21:52:24.200,21.797163,39.075058,0.0,-534,-470,15722,-6,-8,1,0.13,0.14,-0.05,16241.920452951368,0.0
79,1900-01-01 21:52:24.300,21.797163,39.075058,0.0,-646,-732,15076,-8,-4,7,0.11,0.29,-0.12,16717.58104511535,0.0
80,1900-01-01 21:52:24.400,21.797161,39.075058,0.0,-506,-362,16706,1,-1,10,0.05,0.42,-0.2,16187.960217396138,0.000222
81,1900-01-01 21:52:24.500,21.797161,39.075058,0.0,-430,-348,17176,-2,0,15,-0.01,0.52,-0.26,16716.63231634889,0.0
82,1900-01-01 21:52:24.600,21.797161,39.075058,0.0,-484,-274,16176,0,2,22,-0.12,0.62,-0.32,16713.77910587549,0.0
83,1900-01-01 21:52:24.700,21.797161,39.075058,0.0,-300,-236,16946,2,-3,26,-0.27,0.7,-0.37,16184.033860567642,0.0
84,1900-01-01 21:52:24.800,21.797161,39.075058,0.0,-398,-40,16072,-2,0,31,-0.45,0.77,-0.39,16182.61647571245,0.0
85,1900-01-01 21:52:24.900,21.797161,39.075058,0.0,-544,-298,15860,0,-6,38,-0.65,0.83,-0.43,16076.877930742648,0.0
86,1900-01-01 21:52:25.000,21.797161,39.075058,0.0,-192,20,16234,-6,3,41,-0.9,0.86,-0.45,16075.223419909285,0.0
87,1900-01-01 21:52:25.100,21.797161,39.075058,0.0,-318,-496,15768,0,-8,47,-1.16,0.87,-0.48,15865.94907340875,0.0
88,1900-01-01 21:52:25.200,21.797161,39.075058,0.0,-176,-50,17010,0,-3,54,-1.47,0.9,-0.52,16237.299898690053,0.0
89,1900-01-01 21:52:25.300,21.797161,39.075058,0.0,-574,-296,15756,-1,-3,58,-1.81,0.94,-0.52,16191.811387241392,0.0
90,1900-01-01 21:52:25.400,21.797161,39.075058,0.0,-256,-204,16866,-2,-4,60,-2.17,1.0,-0.53,16393.76442431695,0.0
91,1900-01-01 21:52:25.500,21.797159,39.075058,0.0,-286,-92,16188,-2,-4,69,-2.57,1.02,-0.57,16191.811387241392,0.000222
92,1900-01-01 21:52:25.600,21.797159,39.075062,0.0,-348,-316,16390,2,-1,78,-3.02,1.03,-0.62,16392.677145603764,0.000413
93,1900-01-01 21:52:25.700,21.797159,39.075062,0.0,-260,-142,16058,-2,-2,81,-3.51,1.05,-0.6,16392.355047399382,0.0
94,1900-01-01 21:52:25.800,21.797159,39.075062,0.0,-226,-98,16890,3,1,83,-4.0,1.07,-0.58,16392.373226595348,0.0
95,1900-01-01 21:52:25.900,21.797159,39.075062,0.0,-28,238,16572,0,-3,88,-4.54,1.04,-0.57,16574.347166630727,0.0
96,1900-01-01 21:52:26.000,21.797159,39.075062,0.0,-258,-106,16016,-1,-11,92,-5.09,1.03,-0.54,16573.830697819983,0.0
97,1900-01-01 21:52:26.100,21.797157,39.075062,0.0,-288,-166,16856,6,-1,94,-5.66,1.05,-0.53,16018.428637041774,0.000222
98,1900-01-01 21:52:26.200,21.797157,39.075062,0.0,-80,226,15518,1,-7,97,-6.24,1.02,-0.48,16018.694328814692,0.0
99,1900-01-01 21:52:26.300,21.797157,39.075062,0.0,-636,-192,15998,-5,-10,98,-6.84,1.07,-0.44,16001.453184008007,0.0
100,1900-01-01 21:52:26.400,21.797157,39.075062,0.0,-274,-44,16860,3,-1,105,-7.46,1.13,-0.45,16001.88863853264,0.0
101,1900-01-01 21:52:26.500,21.797157,39.075062,0.0,-350,-250,15202,2,-11,106,-8.1,1.15,-0.44,16081.589598046581,0.0
102,1900-01-01 21:52:26.600,21.797157,39.075062,0.0,-378,200,16974,-2,-10,112,-8.77,1.22,-0.39,16863.689869064838,0.0
103,1900-01-01 21:52:26.700,21.797157,39.075062,0.0,-504,-234,16076,2,-3,118,-9.48,1.27,-0.37,16082.145876716826,0.0
104,1900-01-01 21:52:26.800,21.797155,39.075062,0.0,-186,196,16878,-3,-8,116,-10.2,1.28,-0.35,16731.074562023805,0.000222
105,1900-01-01 21:52:26.900,21.797155,39.075062,0.0,-510,-318,15780,-1,-7,123,-10.91,1.32,-0.33,16081.330417599162,0.0
106,1900-01-01 21:52:27.000,21.797155,39.075062,0.0,-180,164,16726,-3,-2,126,-11.68,1.34,-0.33,16727.36942857424,0.0
107,1900-01-01 21:52:27.100,21.797155,39.075062,0.0,-414,4,16004,-2,-14,126,-12.45,1.34,-0.3,16289.406250689433,0.0
108,1900-01-01 21:52:27.200,21.797155,39.075066,0.0,-214,-72,17010,-3,0,134,-13.24,1.37,-0.32,16289.406250689433,0.000413
109,1900-01-01 21:52:27.300,21.797155,39.075066,0.0,-114,102,16288,-5,-8,136,-14.07,1.36,-0.34,16291.760494188466,0.0
110,1900-01-01 21:52:27.400,21.797155,39.075066,0.0,-548,-96,15674,-2,-10,135,-14.89,1.39,-0.33,16291.795481161676,0.0
111,1900-01-01 21:52:27.500,21.797155,39.075066,0.0,-350,238,16826,-4,-6,139,-15.73,1.42,-0.3,16292.079302532258,0.0
112,1900-01-01 21:52:27.600,21.797153,39.075066,0.0,-424,-34,15612,-5,-9,144,-16.6,1.42,-0.29,15882.58442445687,0.000222
113,1900-01-01 21:52:27.700,21.797153,39.075066,0.0,-184,152,17526,-2,-6,146,-17.47,1.43,-0.3,16521.583217113304,0.0
114,1900-01-01 21:52:27.800,21.797153,39.075066,0.0,-152,214,15878,0,-5,144,-18.45,1.44,-0.26,16520.837872214594,0.0
115,1900-01-01 21:52:27.900,21.797153,39.075066,0.0,-298,172,16518,2,-5,147,-19.34,1.42,-0.24,16520.483406970874,0.0
116,1900-01-01 21:52:28.000,21.797153,39.075066,0.0,-256,168,16610,-11,-8,149,-20.25,1.43,-0.21,16520.52456794275,0.0
117,1900-01-01 21:52:28.100,21.797153,39.075066,0.0,-232,-172,15650,0,-9,146,-21.05,1.41,-0.2,16520.879032303335,0.0
118,1900-01-01 21:52:28.200,21.797153,39.075066,0.0,-106,470,17622,0,-3,151,-21.97,1.4,-0.16,16034.558678055346,0.0
119,1900-01-01 21:52:28.300,21.797153,39.075066,0.0,-364,334,16032,-3,-10,153,-22.89,1.39,-0.15,16034.90105987561,0.0
120,1900-01-01 21:52:28.400,21.797153,39.075066,0.0,-214,66,15732,-1,-7,153,-23.83,1.38,-0.15,16034.787307600935,0.0
121,1900-01-01 21:52:28.500,21.797153,39.075066,0.0,-262,198,17176,3,-7,152,-24.76,1.38,-0.12,16035.363170193557,0.0
122,1900-01-01 21:52:28.600,21.797153,39.075066,0.0,-224,8,15896,-2,-3,156,-25.69,1.41,-0.07,16398.22600161371,0.0
123,1900-01-01 21:52:28.700,21.797153,39.075066,0.0,-288,238,16558,10,-15,159,-26.75,1.45,-0.06,16399.28852115237,0.0
124,1900-01-01 21:52:28.800,21.797153,39.075066,0.0,-370,-14,16396,7,-4,157,-27.71,1.5,-0.02,16398.57798713047,0.0
125,1900-01-01 21:52:28.900,21.797153,39.075066,0.0,24,352,15160,-2,0,159,-28.68,1.42,0.12,16562.879701307982,0.0
126,1900-01-01 21:52:29.000,21.797153,39.075066,0.0,-324,40,16778,3,-14,164,-29.67,1.38,0.12,16400.545478733322,0.0
127,1900-01-01 21:52:29.100,21.797153,39.075066,0.0,-360,270,17014,1,-6,159,-30.84,1.49,0.18,16781.247986964496,0.0
128,1900-01-01 21:52:29.200,21.797152,39.075066,0.0,-190,210,16052,15,-1,161,-32.02,1.51,0.21,16781.247986964496,0.000111
129,1900-01-01 21:52:29.300,21.797152,39.075066,0.0,-82,550,17832,4,-16,156,-33.37,1.49,0.36,16590.86326867894,0.0
130,1900-01-01 21:52:29.400,21.797152,39.075066,0.0,316,536,15666,3,2,150,-34.32,1.42,0.49,16338.317906075888,0.0
131,1900-01-01 21:52:29.500,21.797152,39.075066,0.0,646,1070,16582,7,-10,137,-35.18,1.16,0.67,16364.656794445767,0.0
132,1900-01-01 21:52:29.600,21.797152,39.075066,0.0,926,920,16326,7,-1,118,-36.02,0.9,0.95,16387.210012689775,0.0
133,1900-01-01 21:52:29.700,21.797152,39.075066,0.0,1204,1210,15284,6,-2,92,-36.59,0.59,1.22,16405.267202944302,0.0
134,1900-01-01 21:52:29.800,21.797152,39.075066,0.0,1750,1656,17148,-3,3,72,-36.87,0.33,1.41,16318.213872847726,0.0
135,1900-01-01 21:52:29.900,21.797152,39.075066,0.0,1976,856,16198,-7,4,53,-37.2,-0.1,1.6,15558.67783585739,0.0
136,1900-01-01 21:52:30.000,21.797152,39.075066,0.0,1890,560,15426,-3,-4,40,-37.48,-0.57,1.68,16002.963975464045,0.0
137,1900-01-01 21:52:30.100,21.797152,39.075066,0.0,1838,560,15204,-3,-2,25,-37.63,-0.92,1.76,15993.267958738139,0.0
138,1900-01-01 21:52:30.200,21.797152,39.075066,0.0,1672,964,15874,4,-5,6,-37.7,-1.28,1.85,15971.632978502856,0.0
139,1900-01-01 21:52:30.300,21.797152,39.075066,0.0,468,650,16312,-5,-5,-5,-37.7,-1.53,1.92,16188.459099000127,0.0
140,1900-01-01 21:52:30.400,21.797152,39.075066,0.0,-676,30,16326,-19,-9,5,-37.69,-1.32,1.72,16315.770652960282,0.0
141,1900-01-01 21:52:30.500,21.797152,39.075069,0.0,-596,-96,16172,-3,-3,1,-37.72,-0.99,1.49,16312.695424116764,0.00031
142,1900-01-01 21:52:30.600,21.797152,39.075069,0.0,318,148,16858,3,3,-7,-37.7,-0.92,1.39,16331.863580130714,0.0
143,1900-01-01 21:52:30.700,21.797152,39.075069,0.0,28,204,16054,-4,-5,4,-37.7,-0.89,1.3,16172.70144410018,0.0
144,1900-01-01 21:52:30.800,21.797152,39.075069,0.0,-434,56,16714,3,2,-2,-37.72,-0.73,1.23,16216.699540905356,0.0
145,1900-01-01 21:52:30.900,21.797152,39.075069,0.0,248,308,15808,-2,3,-1,-37.7,-0.64,1.16,16217.925884649985,0.0
146,1900-01-01 21:52:31.000,21.797152,39.075069,0.0,-160,-190,16216,-2,2,4,-37.71,-0.63,1.07,16251.307639694722,0.0
147,1900-01-01 21:52:31.100,21.797152,39.075069,0.0,-362,192,17058,1,0,-3,-37.71,-0.53,0.99,16235.02510007299,0.0
148,1900-01-01 21:52:31.200,21.797152,39.075069,0.0,-34,130,16250,0,6,2,-37.71,-0.45,0.94,16250.507192084806,0.0
149,1900-01-01 21:52:31.300,21.797152,39.075069,0.0,-128,10,16234,-3,-2,4,-37.73,-0.42,0.86,16603.002379087946,0.0
150,1900-01-01 21:52:31.400,21.797152,39.075069,0.0,4,-60,16712,0,6,-1,-37.74,-0.37,0.81,16602.543780999345,0.0
151,1900-01-01 21:52:31.500,21.797152,39.075069,0.0,-226,244,16602,4,-2,-1,-37.73,-0.3,0.76,16602.525229614923,0.0
152,1900-01-01 21:52:31.600,21.797152,39.075069,0.0,126,132,16844,-1,2,0,-37.75,-0.22,0.73,16604.271016819737,0.0
153,1900-01-01 21:52:31.700,21.797152,39.075069,0.0,196,256,16514,-2,1,-1,-37.73,-0.21,0.69,16516.96545979315,0.0
154,1900-01-01 21:52:31.800,21.797152,39.075069,0.0,290,406,16098,-2,0,1,-37.73,-0.24,0.68,16117.732346704359,0.0
155,1900-01-01 21:52:31.900,21.797152,39.075069,0.0,308,16,16116,-1,5,-4,-37.72,-0.31,0.7,16117.199756781572,0.0
156,1900-01-01 21:52:32.000,21.79715,39.075069,0.0,30,-194,15896,-2,-2,-8,-37.68,-0.38,0.68,16118.170119464554,0.000222
157,1900-01-01 21:52:32.100,21.79715,39.075069,0.0,-114,-378,16304,0,-6,-2,-37.65,-0.35,0.62,16304.979484807702,0.0
158,1900-01-01 21:52:32.200,21.79715,39.075069,0.0,264,148,16970,0,5,-5,-37.63,-0.35,0.58,16305.643317575667,0.0
159,1900-01-01 21:52:32.300,21.79715,39.075069,0.0,178,460,16964,-1,1,-8,-37.59,-0.33,0.56,16305.643317575667,0.0
160,1900-01-01 21:52:32.400,21.79715,39.075069,0.0,206,478,16066,-9,2,-4,-37.55,-0.32,0.55,16269.646953760244,0.0
161,1900-01-01 21:52:32.500,21.79715,39.075069,0.0,-102,2,15900,0,3,-5,-37.52,-0.31,0.53,16268.973907410387,0.0
162,1900-01-01 21:52:32.600,21.79715,39.075069,0.0,50,-156,16268,2,1,-10,-37.48,-0.32,0.53,16269.304348988004,0.0
163,1900-01-01 21:52:32.700,21.79715,39.075069,0.0,298,-78,17020,0,-1,-7,-37.43,-0.36,0.51,16678.66253630668,0.0
164,1900-01-01 21:52:32.800,21.79715,39.075069,0.0,402,488,16676,-3,-1,-4,-37.4,-0.4,0.46,16922.82635968354,0.0
165,1900-01-01 21:52:32.900,21.79715,39.075073,0.0,402,524,16912,-2,4,-5,-37.37,-0.43,0.44,16922.82635968354,0.000413
166,1900-01-01 21:52:33.000,21.79715,39.075073,0.0,358,536,17024,0,-1,-3,-37.34,-0.47,0.43,16686.979475027827,0.0
167,1900-01-01 21:52:33.100,21.79715,39.075073,0.0,116,6,16196,1,6,-2,-37.33,-0.52,0.4,16871.799666899795,0.0
168,1900-01-01 21:52:33.200,21.79715,39.075073,0.0,280,-310,16150,3,3,-2,-37.32,-0.57,0.37,16339.923378033325,0.0
169,1900-01-01 21:52:33.300,21.79715,39.075073,0.0,642,-40,16868,-1,-1,0,-37.31,-0.63,0.38,16198.469557337816,0.0
170,1900-01-01 21:52:33.400,21.79715,39.075073,0.0,400,348,16336,-3,2,3,-37.32,-0.68,0.36,16342.856788211784,0.0
171,1900-01-01 21:52:33.500,21.79715,39.075073,0.0,250,-274,15738,-1,-1,5,-37.35,-0.76,0.33,16382.932704494639,0.0
172,1900-01-01 21:52:33.600,21.79715,39.075073,0.0,386,-274,16378,-1,-1,10,-37.39,-0.79,0.28,16340.93608089818,0.0
173,1900-01-01 21:52:33.700,21.79715,39.075073,0.0,540,112,17312,-5,6,16,-37.47,-0.84,0.23,16383.735959786462,0.0
174,1900-01-01 21:52:33.800,21.79715,39.075073,0.0,432,-36,16246,0,1,17,-37.56,-0.89,0.21,16383.813719644153,0.0
175,1900-01-01 21:52:33.900,21.79715,39.075073,0.0,580,92,16892,-2,1,19,-37.68,-0.95,0.2,16251.86093959704,0.0
176,1900-01-01 21:52:34.000,21.79715,39.075073,0.0,214,62,16050,-3,-2,25,-37.82,-0.96,0.17,16089.84076987712,0.0
177,1900-01-01 21:52:34.100,21.79715,39.075073,0.0,266,-362,16024,-3,-1,31,-37.97,-0.98,0.1,16053.083192957047,0.0
178,1900-01-01 21:52:34.200,21.79715,39.075073,0.0,510,-168,16084,-5,-1,36,-38.18,-1.02,0.03,16053.23581088872,0.0
179,1900-01-01 21:52:34.300,21.79715,39.075073,0.0,230,-310,15372,10,0,43,-38.45,-1.08,-0.04,16035.110726153405,0.0
180,1900-01-01 21:52:34.400,21.79715,39.075073,0.0,960,-182,16268,-2,0,53,-38.71,-1.16,-0.06,16115.605976816385,0.0
181,1900-01-01 21:52:34.500,21.79715,39.075073,0.0,984,-322,15938,3,0,63,-39.07,-1.3,-0.1,16300.680353899343,0.0
182,1900-01-01 21:52:34.600,21.79715,39.075073,0.0,1016,-462,16394,2,-1,73,-39.48,-1.43,-0.16,16300.912980566456,0.0
183,1900-01-01 21:52:34.700,21.79715,39.075073,0.0,1060,-174,17086,3,1,85,-39.96,-1.55,-0.22,16427.946189344548,0.0
184,1900-01-01 21:52:34.800,21.79715,39.075073,0.0,884,-382,15630,-3,-7,97,-40.52,-1.67,-0.29,16422.35330273953,0.0
185,1900-01-01 21:52:34.900,21.79715,39.075073,0.0,766,-386,16518,5,4,104,-41.14,-1.75,-0.35,16546.047987359398,0.0
186,1900-01-01 21:52:35.000,21.79715,39.075073,0.0,858,-388,16098,4,-3,118,-41.88,-1.84,-0.4,16125.37416620154,0.0
187,1900-01-01 21:52:35.100,21.79715,39.075073,0.0,1052,-380,16568,2,-8,124,-42.55,-1.91,-0.39,16544.05198251021,0.0
188,1900-01-01 21:52:35.200,21.79715,39.075073,0.0,800,-174,16052,-1,-7,128,-43.31,-1.98,-0.39,16425.01482495526,0.0
189,1900-01-01 21:52:35.300,21.79715,39.075073,0.0,844,-472,16674,-2,-2,140,-44.11,-2.01,-0.42,16500.79016289826,0.0
190,1900-01-01 21:52:35.400,21.79715,39.075073,0.0,986,-494,16398,-2,-3,150,-45.01,-2.04,-0.49,16499.790180484113,0.0
191,1900-01-01 21:52:35.500,21.79715,39.075073,0.0,996,-418,16466,4,-3,150,-45.92,-2.13,-0.56,16709.795211192744,0.0
192,1900-01-01 21:52:35.600,21.79715,39.075073,0.0,944,-540,16970,9,-7,163,-46.87,-2.18,-0.59,16502.890292309407,0.0
193,1900-01-01 21:52:35.700,21.79715,39.075073,0.0,1236,-224,16898,-10,-8,173,-47.9,-2.21,-0.6,16501.87540857099,0.0
194,1900-01-01 21:52:35.800,21.79715,39.075073,0.0,652,-604,16196,-3,-15,175,-48.96,-2.24,-0.67,16230.699800070235,0.0
195,1900-01-01 21:52:35.900,21.79715,39.075073,0.0,698,-650,15378,-18,-17,183,-50.04,-2.22,-0.73,16231.226817465154,0.0
196,1900-01-01 21:52:36.000,21.79715,39.075073,0.0,872,-618,15150,-13,-9,194,-51.18,-2.25,-0.86,15407.549707854263,0.0
197,1900-01-01 21:52:36.100,21.79715,39.075073,0.0,904,-830,17720,-7,-12,200,-52.38,-2.22,-0.99,15412.403706106326,0.0
198,1900-01-01 21:52:36.200,21.79715,39.075073,0.0,652,-908,15298,5,-23,205,-53.62,-2.2,-1.11,16073.394289943864,0.0
199,1900-01-01 21:52:36.300,21.79715,39.075073,0.0,798,-500,17618,0,-10,213,-54.89,-2.17,-1.12,16190.52821868391,0.0
200,1900-01-01 21:52:36.400,21.79715,39.075073,0.0,366,-660,16040,2,-9,220,-56.21,-2.11,-1.17,16190.251387795064,0.0
201,1900-01-01 21:52:36.500,21.79715,39.075073,0.0,472,-750,16160,-8,-14,226,-57.57,-2.1,-1.23,16709.65636989582,0.0
202,1900-01-01 21:52:36.600,21.79715,39.075073,0.0,1280,-744,16674,5,-13,228,-58.96,-2.06,-1.35,16697.263129028062,0.0
203,1900-01-01 21:52:36.700,21.79715,39.075073,0.0,884,-802,16760,8,-23,223,-60.49,-2.02,-1.4,16698.876848459,0.0
204,1900-01-01 21:52:36.800,21.79715,39.075073,0.0,192,-502,17112,4,-10,224,-61.85,-1.94,-1.35,16698.876848459,0.0
205,1900-01-01 21:52:36.900,21.79715,39.075073,0.0,526,-428,15842,-1,-7,227,-63.23,-1.95,-1.27,16776.2510710826,0.0
206,1900-01-01 21:52:37.000,21.79715,39.075073,0.0,402,-756,16438,-9,-14,217,-64.45,-1.97,-1.26,17127.917094614862,0.0
207,1900-01-01 21:52:37.100,21.79715,39.075073,0.0,750,-518,17316,-12,-26,204,-65.86,-1.98,-1.22,16461.23421861192,0.0
208,1900-01-01 21:52:37.200,21.79715,39.075073,0.0,638,-678,17332,-11,-13,203,-67.11,-1.95,-1.27,16636.355971185516,0.0
209,1900-01-01 21:52:37.300,21.79715,39.075073,0.0,552,-996,16372,-5,-6,197,-68.34,-1.94,-1.34,16632.99395779365,0.0
210,1900-01-01 21:52:37.400,21.79715,39.075073,0.0,508,-850,16610,-1,-6,191,-69.4,-1.94,-1.41,16393.9053309454,0.0
211,1900-01-01 21:52:37.500,21.79715,39.075073,0.0,220,-428,16026,2,-9,188,-70.56,-1.93,-1.4,16389.79401945003,0.0
212,1900-01-01 21:52:37.600,21.79715,39.075073,0.0,416,-432,16084,8,-2,186,-71.69,-1.92,-1.37,16561.4308560583,0.0
213,1900-01-01 21:52:37.700,21.79715,39.075073,0.0,782,-570,16548,2,5,180,-72.93,-1.91,-1.33,16509.153339889966,0.0
214,1900-01-01 21:52:37.800,21.79715,39.075073,0.0,616,-330,17684,-6,0,169,-73.99,-1.91,-1.28,16565.849208537424,0.0
215,1900-01-01 21:52:37.900,21.797148,39.075069,6.89,922,-678,16492,3,-3,163,-75.11,-1.9,-1.33,16746.593922347314,0.000469
216,1900-01-01 21:52:38.000,21.797146,39.075069,8.41,498,-460,16722,6,1,158,-76.18,-1.9,-1.27,16973.524206834594,0.000222
217,1900-01-01 21:52:38.100,21.797146,39.075066,8.22,904,178,17296,1,-9,145,-77.11,-1.89,-1.17,16973.524206834594,0.00031
218,1900-01-01 21:52:38.200,21.797144,39.075066,8.23,622,-374,16958,5,-8,137,-77.97,-1.89,-1.11,16970.379253275398,0.000222
219,1900-01-01 21:52:38.300,21.797142,39.075062,8.32,564,-182,17294,14,-12,128,-78.87,-1.83,-1.04,16976.629936474437,0.000469
220,1900-01-01 21:52:38.400,21.79714,39.075062,8.39,774,-24,16268,-3,-5,123,-79.65,-1.77,-0.97,16970.379253275398,0.000222
221,1900-01-01 21:52:38.500,21.79714,39.075058,8.43,944,-444,15124,-9,-20,115,-80.45,-1.74,-0.91,16280.751579702946,0.000413
222,1900-01-01 21:52:38.600,21.797138,39.075058,8.49,618,-160,17194,-4,-5,107,-81.14,-1.66,-0.91,16285.787791814064,0.000222
223,1900-01-01 21:52:38.700,21.797136,39.075054,8.59,434,-556,15612,0,-8,107,-82.12,-1.58,-0.98,16297.83077590389,0.000469
224,1900-01-01 21:52:38.800,21.797134,39.075054,8.65,340,-684,16916,15,-6,100,-82.75,-1.56,-1.02,16372.221596350326,0.000222
225,1900-01-01 21:52:38.900,21.797134,39.07505,8.67,422,-60,16286,12,-1,98,-83.35,-1.56,-0.95,16300.951383278216,0.000413
226,1900-01-01 21:52:39.000,21.797132,39.07505,8.75,66,20,16366,-1,-11,97,-83.95,-1.52,-0.84,16302.291740733877,0.000222
227,1900-01-01 21:52:39.100,21.797131,39.075047,8.98,692,-598,14272,-15,-9,90,-84.52,-1.54,-0.81,16297.68020302276,0.000329
228,1900-01-01 21:52:39.200,21.797129,39.075047,9.32,908,-594,14572,-18,-12,88,-85.05,-1.58,-0.87,16377.623148674535,0.000222
229,1900-01-01 21:52:39.300,21.797127,39.075043,9.66,212,-450,16760,3,-5,93,-85.66,-1.54,-0.95,16772.349268960505,0.000469
230,1900-01-01 21:52:39.400,21.797125,39.075043,9.85,422,-126,17484,3,5,88,-86.16,-1.58,-0.93,16771.35009473,0.000222
231,1900-01-01 21:52:39.500,21.797123,39.075039,10.18,460,-248,17392,3,-1,84,-86.68,-1.6,-0.94,16771.35009473,0.000469
232,1900-01-01 21:52:39.600,21.797121,39.075039,10.91,218,-674,15446,-9,-11,87,-87.2,-1.61,-0.99,16687.895852982783,0.000222
233,1900-01-01 21:52:39.700,21.797117,39.075035,11.16,524,-632,15596,4,0,85,-87.78,-1.67,-1.02,15785.209026173838,0.000607
234,1900-01-01 21:52:39.800,21.797115,39.075035,11.26,364,-390,16678,-2,-13,83,-88.35,-1.63,-0.98,15787.203678929338,0.000222
235,1900-01-01 21:52:40.000,21.797112,39.075031,11.37,528,-518,15770,5,-4,82,-88.85,-1.61,-0.99,15783.522293835429,0.000531
236,1900-01-01 21:52:40.100,21.797108,39.075027,11.58,898,-194,17866,11,0,82,-89.4,-1.67,-0.91,15780.029150796901,0.000607
237,1900-01-01 21:52:40.200,21.797106,39.075024,11.87,118,-102,15592,-11,13,81,-89.96,-1.63,-0.85,15779.795942913837,0.000381
238,1900-01-01 21:52:40.300,21.797104,39.075024,12.02,578,-174,14200,-13,-7,70,-90.42,-1.65,-0.83,15598.043210608183,0.000222
239,1900-01-01 21:52:40.400,21.7971,39.07502,12.12,138,334,16962,3,-1,57,-90.86,-1.67,-0.77,15596.531152791636,0.000607
240,1900-01-01 21:52:40.500,21.797098,39.07502,12.11,422,38,15446,-1,-6,41,-91.16,-1.67,-0.63,16969.41000742218,0.000222
241,1900-01-01 21:52:40.600,21.797094,39.075016,12.14,374,1186,17086,5,-2,20,-91.35,-1.7,-0.36,16981.262261681255,0.000607
242,1900-01-01 21:52:40.700,21.797092,39.075016,12.21,210,720,18192,24,12,-3,-91.4,-1.7,-0.06,16166.234564672133,0.000222
243,1900-01-01 21:52:40.800,21.797091,39.075012,12.24,368,946,16146,-5,-11,-18,-91.31,-1.72,0.29,17105.12262452392,0.000428
244,1900-01-01 21:52:40.900,21.797087,39.075012,12.25,-322,-138,15220,4,1,-20,-91.18,-1.7,0.33,16715.56879080099,0.000445
245,1900-01-01 21:52:41.000,21.797085,39.075008,12.26,776,182,17430,-9,-3,-14,-91.09,-1.68,0.32,16169.103005423647,0.000469
246,1900-01-01 21:52:41.100,21.797083,39.075008,12.32,1090,740,16696,-13,0,-16,-91.0,-1.7,0.39,16718.61357888267,0.000222
247,1900-01-01 21:52:41.200,21.797079,39.075005,12.68,1050,380,16098,-22,11,-17,-90.91,-1.82,0.38,16718.61357888267,0.000542
248,1900-01-01 21:52:41.300,21.797077,39.075001,12.9,850,-396,16736,-20,-10,-16,-90.81,-1.93,0.3,16176.773596734301,0.000469
249,1900-01-01 21:52:41.400,21.797073,39.075001,12.96,458,-92,16152,-1,-5,-19,-90.7,-1.84,0.17,16114.28645643362,0.000445
250,1900-01-01 21:52:41.500,21.797071,39.074997,13.14,668,280,15990,-5,-11,-14,-90.59,-1.81,0.17,16064.79355609651,0.000469
251,1900-01-01 21:52:41.600,21.79707,39.074993,13.36,448,1264,16058,-30,-33,-23,-90.49,-1.79,0.3,15996.31520069544,0.000428
252,1900-01-01 21:52:41.700,21.797066,39.074993,13.77,126,-234,15500,-20,-27,-21,-90.33,-1.55,0.19,15998.725074205131,0.000445
253,1900-01-01 21:52:41.900,21.79706,39.074989,14.45,-52,-36,15270,0,-4,-22,-90.13,-1.4,0.05,16064.489160879035,0.000785
254,1900-01-01 21:52:42.000,21.797056,39.074986,14.71,1058,340,17654,15,37,-39,-89.87,-1.66,0.25,16718.508306664204,0.000542
255,1900-01-01 21:52:42.100,21.797054,39.074982,14.76,586,88,16710,-18,7,-41,-89.56,-1.78,0.45,16720.5035809332,0.000469
256,1900-01-01 21:52:42.300,21.797047,39.074978,15.24,526,472,17058,-42,79,-33,-89.33,-1.92,0.47,16725.99533660105,0.000881
257,1900-01-01 21:52:42.400,21.797045,39.074974,15.53,1028,-164,15728,-22,28,-40,-89.11,-2.28,0.28,16720.286480799306,0.000469
258,1900-01-01 21:52:42.500,21.797041,39.07497,15.77,726,-268,16348,5,-10,-46,-88.8,-2.43,0.13,16356.843338492914,0.000607
259,1900-01-01 21:52:42.600,21.797037,39.07497,15.79,284,22,18156,21,-12,-39,-88.54,-2.24,0.17,15903.526778673968,0.000445
260,1900-01-01 21:52:42.700,21.797035,39.074966,15.87,404,-112,14238,-15,-10,-41,-88.32,-2.02,0.33,16350.481460801086,0.000469
261,1900-01-01 21:52:42.800,21.797031,39.074963,15.97,-166,534,15898,-10,-10,-45,-88.06,-1.82,0.38,16895.577409487963,0.000542
262,1900-01-01 21:52:42.900,21.797028,39.074959,15.94,-154,172,16894,-5,-15,-38,-87.81,-1.59,0.33,15899.796979835937,0.000531
263,1900-01-01 21:52:43.000,21.797026,39.074959,16.05,-462,220,16968,-4,1,-44,-87.53,-1.31,0.3,16238.064663007104,0.000222
264,1900-01-01 21:52:43.100,21.797022,39.074955,16.1,-712,-220,14468,15,-5,-43,-87.27,-1.12,0.27,16247.099556536237,0.000607
265,1900-01-01 21:52:43.200,21.797018,39.074951,16.22,-884,442,16230,-6,-15,-41,-87.0,-0.86,0.34,16247.099556536237,0.000607
266,1900-01-01 21:52:43.300,21.797016,39.074947,16.25,-1542,378,15992,3,-5,-41,-86.68,-0.51,0.38,16017.870520140934,0.000469
267,1900-01-01 21:52:43.400,21.797012,39.074947,16.34,-338,216,16884,-3,3,-43,-86.41,-0.15,0.36,16037.464388113229,0.000445
268,1900-01-01 21:52:43.500,21.797009,39.074944,16.26,-1146,-512,15912,23,-3,-43,-86.16,0.15,0.37,16061.655829957259,0.000455
269,1900-01-01 21:52:43.600,21.797005,39.07494,16.24,-1470,582,14814,-28,-13,-37,-85.92,0.42,0.45,16942.990527058675,0.000607
270,1900-01-01 21:52:43.700,21.797003,39.074936,16.2,-1502,268,17746,-2,1,-39,-85.64,0.81,0.41,15973.28219246126,0.000469
271,1900-01-01 21:52:43.800,21.796999,39.074932,16.13,-1396,-340,17612,3,16,-40,-85.39,1.12,0.33,16280.77184902485,0.000607
272,1900-01-01 21:52:43.900,21.796997,39.074932,16.09,-1040,72,15654,2,3,-41,-85.16,1.3,0.36,16283.692333128873,0.000222
273,1900-01-01 21:52:44.000,21.796993,39.074928,16.1,-1668,94,16214,2,-9,-34,-84.94,1.52,0.36,16299.730181815894,0.000607
274,1900-01-01 21:52:44.200,21.796988,39.074921,15.91,-2096,512,14964,5,11,-39,-84.72,1.76,0.34,16349.07324590602,0.000912
275,1900-01-01 21:52:44.300,21.796984,39.074921,15.67,-2792,8,16574,-14,-10,-37,-84.46,2.19,0.33,16725.49120354915,0.000445
276,1900-01-01 21:52:44.400,21.796982,39.074917,15.57,-2610,-68,16708,-1,11,-33,-84.25,2.69,0.26,16778.384904394105,0.000469
277,1900-01-01 21:52:44.500,21.796978,39.074913,15.54,-2246,-244,16794,13,3,-32,-84.06,3.11,0.19,16911.651604736897,0.000607
278,1900-01-01 21:52:44.600,21.796976,39.074909,15.48,-3672,-688,15242,-23,10,-29,-83.86,3.57,0.15,16859.3112552085,0.000469
279,1900-01-01 21:52:44.700,21.796972,39.074905,15.12,-880,-186,16734,-6,13,-30,-83.67,3.63,0.12,16758.898889843567,0.000607
280,1900-01-01 21:52:44.800,21.79697,39.074905,14.65,-272,-30,15786,-13,-6,-30,-83.46,3.39,0.08,16739.1233940132,0.000222
281,1900-01-01 21:52:44.900,21.796967,39.074902,14.48,-16,-400,18060,21,7,-32,-83.24,3.19,0.04,16862.086584998902,0.000455
282,1900-01-01 21:52:45.000,21.796965,39.074898,14.08,-370,490,16858,6,1,-31,-83.03,3.01,0.1,17551.916704451396,0.000469
283,1900-01-01 21:52:45.100,21.796963,39.074898,13.71,-1688,24,19236,47,36,-27,-82.79,2.96,0.18,17563.623430260624,0.000222
284,1900-01-01 21:52:45.200,21.796959,39.074894,13.32,-1162,340,17548,8,89,-22,-82.61,2.63,0.36,16874.26229498641,0.000607
285,1900-01-01 21:52:45.300,21.796957,39.07489,12.97,-658,540,16130,-3,95,-26,-82.49,2.18,0.49,16144.533564027175,0.000469
286,1900-01-01 21:52:45.400,21.796955,39.07489,12.8,74,-258,14390,-13,77,-27,-82.32,1.53,0.41,15589.333532899987,0.000222
287,1900-01-01 21:52:45.500,21.796953,39.074886,12.71,94,190,15588,-10,56,-28,-82.16,1.02,0.35,15588.288039422418,0.000469
288,1900-01-01 21:52:45.600,21.796951,39.074886,12.46,446,-12,15074,-31,9,-29,-81.99,0.66,0.24,15590.968667789695,0.000222
289,1900-01-01 21:52:45.700,21.796947,39.074883,12.36,542,-304,15648,8,-9,-35,-81.81,0.49,0.09,15594.527373408917,0.000542
290,1900-01-01 21:52:45.800,21.796946,39.074879,12.16,304,68,16818,-7,-12,-28,-81.6,0.44,0.03,15654.35926507374,0.000428
291,1900-01-01 21:52:45.900,21.796944,39.074879,11.81,950,384,15358,-16,-81,-39,-81.37,0.47,0.04,15651.44389505326,0.000222
292,1900-01-01 21:52:46.000,21.796942,39.074875,11.75,232,-136,15808,-14,-150,-38,-81.16,0.87,-0.04,15360.252732295781,0.000469
293,1900-01-01 21:52:46.100,21.79694,39.074871,11.49,-272,-124,15222,-14,-159,-30,-80.94,1.79,-0.15,15222.633280743512,0.000469
294,1900-01-01 21:52:46.200,21.796938,39.074871,11.52,-364,-410,14864,-20,-139,-32,-80.78,2.54,-0.22,15225.149326032897,0.000222
295,1900-01-01 21:52:46.300,21.796936,39.074867,11.53,28,-148,14400,3,-128,-35,-80.57,3.16,-0.26,15227.070762296995,0.000469
296,1900-01-01 21:52:46.400,21.796934,39.074863,11.59,-1948,-454,17328,-1,-95,-17,-80.42,3.88,-0.3,16486.78270615586,0.000469
297,1900-01-01 21:52:46.500,21.796932,39.074863,11.59,-1774,64,17788,3,11,-16,-80.34,4.29,-0.29,16504.98651923109,0.000222
298,1900-01-01 21:52:46.600,21.79693,39.07486,11.58,-632,-22,16474,-28,63,-23,-80.19,4.05,-0.28,16506.186113091055,0.000381
299,1900-01-01 21:52:46.700,21.796928,39.07486,11.49,-1000,-248,14874,-5,71,-10,-80.1,3.63,-0.36,15492.8826239664,0.000222
300,1900-01-01 21:52:46.800,21.796926,39.074856,11.36,-276,-966,14890,-12,79,-11,-80.03,3.0,-0.44,14894.622519553826,0.000469
301,1900-01-01 21:52:46.900,21.796925,39.074852,11.09,126,-674,15478,37,70,-19,-79.93,2.35,-0.49,14892.598161502914,0.000428
302,1900-01-01 21:52:47.000,21.796923,39.074852,11.08,910,-224,14682,26,65,-14,-79.81,1.62,-0.29,15164.985064285425,0.000222
303,1900-01-01 21:52:47.100,21.796921,39.074848,11.08,980,20,15404,28,92,-11,-79.73,0.76,0.0,15435.155198442288,0.000469
304,1900-01-01 21:52:47.200,21.796919,39.074848,11.06,1124,70,15136,26,75,-20,-79.65,-0.07,0.23,15435.300968882984,0.000222
305,1900-01-01 21:52:47.300,21.796917,39.074844,11.07,1132,616,15560,-2,-27,-15,-79.53,-0.72,0.48,15435.300968882984,0.000469
306,1900-01-01 21:52:47.500,21.796913,39.074841,11.32,218,324,17204,-7,-52,-9,-79.46,-0.65,0.5,15562.133658338757,0.000542
307,1900-01-01 21:52:47.600,21.796911,39.074837,11.4,248,46,14986,-26,-43,-25,-79.35,-0.41,0.41,15935.66904776828,0.000469
308,1900-01-01 21:52:47.700,21.796909,39.074833,11.64,50,-224,15934,-1,-24,-24,-79.19,-0.29,0.27,16198.468816527073,0.000469
309,1900-01-01 21:52:47.800,21.796907,39.074833,11.7,226,-170,16196,-21,-32,-15,-79.06,-0.19,0.21,16198.468816527073,0.000222
310,1900-01-01 21:52:47.900,21.796906,39.074829,11.76,254,-186,18254,6,-11,-15,-78.98,-0.09,0.11,16197.25223610474,0.000428
311,1900-01-01 21:52:48.000,21.796904,39.074825,11.82,-66,-130,17258,-16,-37,-11,-78.89,-0.01,0.02,16198.386215916695,0.000469
312,1900-01-01 21:52:48.100,21.796902,39.074825,11.89,108,144,15364,-12,-10,-4,-78.85,0.01,-0.05,17260.404398507006,0.000222
313,1900-01-01 21:52:48.200,21.7969,39.074821,11.97,220,-548,14876,7,14,-2,-78.83,-0.1,-0.1,15920.05100494342,0.000469
314,1900-01-01 21:52:48.300,21.796898,39.074818,12.01,584,-524,18810,27,32,-5,-78.8,-0.36,-0.11,15375.769509198555,0.000381
315,1900-01-01 21:52:48.400,21.796894,39.074818,12.11,1254,380,15918,23,48,6,-78.81,-0.86,-0.01,15949.752474568375,0.000445
316,1900-01-01 21:52:48.500,21.796892,39.074814,12.17,946,458,15224,-14,26,9,-78.86,-1.43,0.21,15971.83896738256,0.000469
317,1900-01-01 21:52:48.600,21.79689,39.07481,12.31,1704,-342,16584,31,22,-4,-78.87,-1.84,0.21,15971.83896738256,0.000469
318,1900-01-01 21:52:48.700,21.796888,39.074806,12.39,2102,804,15320,-29,0,7,-78.87,-2.23,0.23,15364.156338699499,0.000469
319,1900-01-01 21:52:48.800,21.796886,39.074806,12.48,1164,-52,16604,-23,-30,8,-78.93,-2.36,0.15,16624.88063115041,0.000222
320,1900-01-01 21:52:48.900,21.796885,39.074802,12.67,428,-2,15284,-11,-34,8,-78.97,-2.27,-0.08,16642.40727779488,0.000428
321,1900-01-01 21:52:49.000,21.796883,39.074799,12.86,640,-110,16922,24,-1,3,-78.96,-2.15,-0.19,16637.54657393932,0.000381
322,1900-01-01 21:52:49.100,21.796881,39.074795,12.93,1130,1148,17624,9,17,6,-79.01,-2.16,-0.01,16350.530511270881,0.000469
323,1900-01-01 21:52:49.200,21.796879,39.074791,13.0,1056,114,15190,24,-28,5,-79.06,-2.32,0.02,16350.900403341708,0.000469
324,1900-01-01 21:52:49.300,21.796877,39.074791,13.29,354,-310,16338,-25,3,5,-79.09,-2.3,0.02,16360.714165341316,0.000222
325,1900-01-01 21:52:49.400,21.796875,39.074787,13.45,-1656,-2012,13412,-20,-4,5,-79.14,-2.44,-0.1,16360.714165341316,0.000469
326,1900-01-01 21:52:49.500,21.796873,39.074783,13.72,830,-232,18400,3,2,7,-79.16,-2.52,-0.27,16391.465340231178,0.000469
327,1900-01-01 21:52:49.600,21.796869,39.07478,13.99,1484,480,17774,18,-2,5,-79.18,-2.52,-0.23,17663.037337898597,0.000542
328,1900-01-01 21:52:49.700,21.796867,39.074776,14.26,88,96,16386,-19,15,8,-79.23,-2.49,-0.18,17676.305156904255,0.000469
329,1900-01-01 21:52:49.800,21.796865,39.074776,14.37,1076,-282,17642,-15,-4,6,-79.29,-2.61,-0.22,17016.52161870927,0.000222
330,1900-01-01 21:52:49.900,21.796864,39.074772,14.63,1270,-806,16970,-15,29,7,-79.34,-2.69,-0.31,17006.416436157266,0.000428
331,1900-01-01 21:52:50.000,21.79686,39.074768,14.89,1078,-600,16980,8,2,5,-79.37,-2.77,-0.47,17009.948500803876,0.000607
332,1900-01-01 21:52:50.100,21.796858,39.074764,15.55,312,598,16082,-11,9,5,-79.4,-2.88,-0.41,17009.948500803876,0.000469
333,1900-01-01 21:52:50.200,21.796856,39.07476,15.72,1110,-442,14816,-17,-1,10,-79.47,-2.96,-0.42,17014.382386675104,0.000469
334,1900-01-01 21:52:50.300,21.796852,39.074757,15.93,938,-82,17252,3,15,2,-79.5,-2.97,-0.52,16109.38136614811,0.000542
335,1900-01-01 21:52:50.400,21.79685,39.074753,16.25,1460,486,17598,6,23,6,-79.51,-3.05,-0.54,16903.217445208473,0.000469
336,1900-01-01 21:52:50.500,21.796846,39.074749,16.85,934,-40,14810,-26,-32,13,-79.58,-3.07,-0.51,16896.256034991893,0.000607
337,1900-01-01 21:52:50.600,21.796844,39.074745,17.17,1056,-226,16870,-1,-27,1,-79.62,-3.01,-0.56,15915.479885947518,0.000469
338,1900-01-01 21:52:50.700,21.796841,39.074741,17.29,764,-472,14622,-5,-9,8,-79.65,-2.96,-0.62,15915.583558261382,0.000531
339,1900-01-01 21:52:50.800,21.796837,39.074738,17.7,842,50,15888,-7,6,10,-79.7,-2.96,-0.59,16610.33027967837,0.000542
340,1900-01-01 21:52:50.900,21.796835,39.074734,18.22,984,-70,17118,7,17,8,-79.76,-2.98,-0.62,16468.70656730516,0.000469
341,1900-01-01 21:52:51.000,21.796831,39.07473,18.42,1064,-196,16580,-7,-6,7,-79.79,-3.02,-0.63,16472.31009907232,0.000607
342,1900-01-01 21:52:51.100,21.796829,39.074726,18.47,456,-310,16446,17,7,6,-79.84,-2.99,-0.62,16584.13241625862,0.000469
343,1900-01-01 21:52:51.200,21.796825,39.074722,18.65,928,180,16416,8,-8,0,-79.86,-3.0,-0.52,16460.97178176307,0.000607
344,1900-01-01 21:52:51.300,21.796822,39.074718,18.89,680,172,16558,7,7,-4,-79.87,-3.05,-0.35,16424.53445306746,0.000531
345,1900-01-01 21:52:51.400,21.79682,39.074715,19.12,526,-174,15394,-15,-16,-2,-79.84,-2.97,-0.31,15453.085258290655,0.000381
346,1900-01-01 21:52:51.500,21.796816,39.074711,19.32,468,-60,15438,-11,-1,-4,-79.82,-2.93,-0.37,15451.617132196876,0.000607
347,1900-01-01 21:52:51.600,21.796812,39.074707,19.67,1146,-292,13692,2,25,-6,-79.78,-2.91,-0.44,15407.656019005617,0.000607
348,1900-01-01 21:52:51.700,21.796808,39.074703,19.79,642,-92,19612,29,13,-10,-79.74,-2.88,-0.42,15454.045166233986,0.000607
349,1900-01-01 21:52:51.800,21.796806,39.074699,19.88,698,168,15310,-15,-6,1,-79.71,-2.79,-0.35,15342.225523045867,0.000469
350,1900-01-01 21:52:51.900,21.796803,39.074696,20.09,714,-102,18380,14,28,-3,-79.71,-2.83,-0.34,17035.8254276099,0.000455
351,1900-01-01 21:52:52.100,21.796795,39.074684,20.78,530,-638,15326,0,0,-3,-79.69,-2.84,-0.34,15357.17955876013,0.001525
352,1900-01-01 21:52:52.200,21.796791,39.07468,20.9,680,352,17022,-8,7,-4,-79.65,-2.88,-0.32,17035.88236634663,0.000607
353,1900-01-01 21:52:52.300,21.796789,39.074677,21.0,612,-60,15342,-7,2,-2,-79.65,-2.9,-0.38,15357.756346550104,0.000381
354,1900-01-01 21:52:52.400,21.796785,39.074673,21.31,682,-606,17520,19,1,-6,-79.61,-2.88,-0.44,16216.374564001659,0.000607
355,1900-01-01 21:52:52.500,21.796782,39.074669,21.37,1188,-146,14540,-11,-15,-2,-79.59,-2.83,-0.39,16213.665470830463,0.000531
356,1900-01-01 21:52:52.600,21.796778,39.074665,21.55,466,140,16202,-8,-12,-2,-79.58,-2.82,-0.35,16217.004778934981,0.000607
357,1900-01-01 21:52:52.700,21.796774,39.074657,21.71,366,480,17736,-1,6,-4,-79.56,-2.74,-0.35,16208.82648435722,0.000938
358,1900-01-01 21:52:52.800,21.79677,39.074654,21.92,844,-480,15636,-22,-16,-3,-79.53,-2.74,-0.43,16259.047081548168,0.000542
359,1900-01-01 21:52:52.900,21.796766,39.07465,22.31,400,64,16972,-19,-24,-9,-79.5,-2.68,-0.49,16259.489905898032,0.000607
360,1900-01-01 21:52:53.000,21.796762,39.074646,22.52,296,-194,16254,-5,10,-5,-79.46,-2.6,-0.6,15659.352732472693,0.000607
361,1900-01-01 21:52:53.100,21.796759,39.074638,22.62,982,-136,14278,-18,-5,-3,-79.43,-2.61,-0.61,15775.225386662467,0.000891
362,1900-01-01 21:52:53.200,21.796755,39.074635,22.54,854,-54,14754,-12,-13,-5,-79.4,-2.6,-0.67,15775.719191212806,0.000542
363,1900-01-01 21:52:53.300,21.796751,39.074631,22.63,1596,312,15752,9,2,-3,-79.38,-2.6,-0.69,15775.225386662467,0.000607
364,1900-01-01 21:52:53.400,21.796747,39.074627,22.81,-1078,-402,17018,11,-20,-4,-79.36,-2.44,-0.7,17030.697343326843,0.000607
365,1900-01-01 21:52:53.500,21.796743,39.074619,22.91,440,142,22246,-2,-16,-11,-79.33,-2.37,-0.64,17024.2793680085,0.000938
366,1900-01-01 21:52:53.600,21.79674,39.074615,22.99,642,278,17876,18,34,-3,-79.3,-2.17,-0.73,17024.2793680085,0.000531
367,1900-01-01 21:52:53.700,21.796736,39.074612,23.33,-174,-452,14986,20,69,-2,-79.27,-2.43,-0.74,17888.088327152233,0.000542
368,1900-01-01 21:52:53.800,21.796732,39.074608,23.58,1052,480,14980,-5,24,-1,-79.25,-2.62,-0.65,15023.494799812725,0.000607
369,1900-01-01 21:52:53.900,21.796728,39.0746,23.64,2092,136,18560,-16,25,-7,-79.25,-2.79,-0.62,15022.95590088715,0.000938
370,1900-01-01 21:52:54.000,21.796724,39.074596,23.73,1074,-666,13450,-17,-40,-6,-79.23,-2.8,-0.69,16072.500365531183,0.000607
371,1900-01-01 21:52:54.100,21.796721,39.074593,23.81,658,-48,17248,13,-4,-5,-79.19,-2.57,-0.75,16968.09170177955,0.000455
372,1900-01-01 21:52:54.200,21.796717,39.074585,23.92,1114,424,16036,6,-20,-3,-79.16,-2.48,-0.72,16949.968023568657,0.000938
373,1900-01-01 21:52:54.400,21.796707,39.074577,24.19,218,-92,16934,0,-18,-6,-79.14,-2.29,-0.58,16949.914336066715,0.001385
374,1900-01-01 21:52:54.500,21.796703,39.07457,24.46,734,268,17820,8,10,-8,-79.1,-2.2,-0.54,16270.721803288261,0.000849
375,1900-01-01 21:52:54.600,21.7967,39.074566,24.71,780,-22,16252,-8,2,-7,-79.05,-2.23,-0.51,16270.766423251242,0.000531
376,1900-01-01 21:52:54.700,21.796696,39.074562,24.94,1024,-44,14780,-26,-12,-7,-78.99,-2.29,-0.54,16284.242813222849,0.000607
377,1900-01-01 21:52:54.800,21.796692,39.074554,25.06,1698,-424,15398,-4,-22,-12,-78.92,-2.34,-0.65,16295.568109151642,0.000938
378,1900-01-01 21:52:54.900,21.796688,39.074551,25.09,1246,264,18396,-4,-1,-8,-78.85,-2.31,-0.65,15444.586106464621,0.000542
379,1900-01-01 21:52:55.000,21.796682,39.074543,25.14,1190,-144,18780,19,24,-12,-78.78,-2.35,-0.67,18435.011581227714,0.001062
380,1900-01-01 21:52:55.100,21.796679,39.074539,25.24,682,-488,15356,-31,-20,-10,-78.71,-2.35,-0.68,18422.943087357133,0.000531
381,1900-01-01 21:52:55.200,21.796675,39.074535,25.51,996,344,19376,13,5,-11,-78.65,-2.36,-0.73,15380.070741059679,0.000607
382,1900-01-01 21:52:55.400,21.796665,39.074524,26.36,274,0,14038,-22,-17,-9,-78.58,-2.35,-0.69,14268.830085189185,0.001589
383,1900-01-01 21:52:55.500,21.796661,39.074516,26.69,848,-842,12160,-14,-16,-9,-78.5,-2.48,-0.71,14277.205889108694,0.000938
384,1900-01-01 21:52:55.600,21.796658,39.074512,26.7,466,-122,14252,-14,-10,-12,-78.41,-2.52,-0.66,14260.138288249522,0.000531
385,1900-01-01 21:52:55.700,21.796652,39.074505,26.97,2544,10,14464,-24,-15,-10,-78.33,-2.55,-0.63,14489.350710090497,0.000984
386,1900-01-01 21:52:55.800,21.796648,39.074501,27.16,252,-478,15676,-12,-6,-12,-78.26,-2.52,-0.68,15688.44721443139,0.000607
387,1900-01-01 21:52:55.900,21.796644,39.074493,27.23,1582,96,16386,-3,18,-12,-78.18,-2.53,-0.68,16219.21551740404,0.000938
388,1900-01-01 21:52:56.100,21.796635,39.074482,27.47,624,-32,16194,-12,-20,-9,-78.09,-2.51,-0.68,16206.049364357743,0.001514
389,1900-01-01 21:52:56.200,21.796631,39.074478,27.52,904,46,17636,-4,11,-10,-78.03,-2.57,-0.7,16397.98451029882,0.000607
390,1900-01-01 21:52:56.300,21.796625,39.074471,27.69,444,-734,15020,-12,-26,-9,-77.91,-2.5,-0.72,16785.633023511506,0.000984
391,1900-01-01 21:52:56.400,21.796621,39.074467,28.22,626,-334,16774,-10,0,-11,-77.85,-2.52,-0.63,16780.996633096616,0.000607
392,1900-01-01 21:52:56.500,21.796616,39.074459,28.42,346,148,17990,13,13,-10,-77.78,-2.48,-0.62,16778.997467071746,0.000996
393,1900-01-01 21:52:56.700,21.796608,39.074448,29.09,336,-194,14478,3,-9,-11,-77.71,-2.53,-0.61,16784.79955197559,0.001443
394,1900-01-01 21:52:56.800,21.796602,39.07444,29.15,1582,328,16772,9,36,-7,-77.65,-2.6,-0.56,16241.246996459355,0.001062
395,1900-01-01 21:52:56.900,21.796597,39.074436,29.18,1606,-388,12928,-5,34,-6,-77.61,-3.08,-0.49,14821.28455971344,0.000693
396,1900-01-01 21:52:57.000,21.796593,39.074429,29.18,2438,-22,16164,5,0,-8,-77.56,-3.67,-0.44,15564.148290221345,0.000849
397,1900-01-01 21:52:57.100,21.796587,39.074421,29.2,2804,374,14734,-18,-16,-8,-77.49,-4.3,-0.35,15623.19058323235,0.001062
398,1900-01-01 21:52:57.200,21.796583,39.074417,29.26,2790,-40,15372,-1,-25,-9,-77.45,-4.59,-0.37,15623.19058323235,0.000607
399,1900-01-01 21:52:57.300,21.796577,39.074409,29.33,3120,-88,15786,-13,-19,-8,-77.4,-4.91,-0.41,15623.19058323235,0.001062
400,1900-01-01 21:52:57.400,21.796574,39.074402,29.54,2710,-494,14470,7,-10,-6,-77.37,-5.25,-0.41,16030.704787999808,0.000796
401,1900-01-01 21:52:57.500,21.796568,39.074398,29.6,2334,432,16054,4,6,-5,-77.35,-5.76,-0.3,16016.933289490844,0.000785
402,1900-01-01 21:52:57.600,21.796564,39.07439,29.68,3242,80,17952,16,34,-4,-77.33,-6.23,-0.25,16281.321076620288,0.000938
403,1900-01-01 21:52:57.700,21.796558,39.074383,29.91,2188,-16,15674,16,1,-5,-77.3,-6.54,-0.25,16562.79686526403,0.000984
404,1900-01-01 21:52:57.800,21.796555,39.074375,30.21,3212,424,16300,-31,31,-3,-77.3,-6.74,-0.21,16724.944364630934,0.000891
405,1900-01-01 21:52:57.900,21.796549,39.074371,30.68,2908,534,16722,-9,-3,-6,-77.28,-7.02,-0.28,16464.640536616644,0.000785
406,1900-01-01 21:52:58.000,21.796545,39.074364,31.11,2322,52,16470,4,-6,-5,-77.27,-7.17,-0.35,16474.368091068016,0.000849
407,1900-01-01 21:52:58.100,21.796539,39.074356,31.42,1874,-200,14306,-19,-15,1,-77.25,-7.3,-0.37,16642.58705850746,0.001062
408,1900-01-01 21:52:58.200,21.796534,39.074348,31.78,2390,-526,14268,4,-38,-4,-77.24,-7.49,-0.43,16642.58705850746,0.000996
409,1900-01-01 21:52:58.300,21.79653,39.074341,32.19,3040,222,19446,8,24,-6,-77.21,-7.71,-0.41,14626.798556075079,0.000849
410,1900-01-01 21:52:58.500,21.796518,39.074326,33.42,3806,356,18308,-2,23,-5,-77.2,-7.87,-0.4,16174.95471400152,0.002044
411,1900-01-01 21:52:58.600,21.796513,39.074318,34.21,3126,-826,13420,-25,2,-4,-77.18,-7.98,-0.43,18080.77896552026,0.000996
412,1900-01-01 21:52:58.700,21.796509,39.07431,35.02,2834,-1116,15878,-9,22,-5,-77.15,-8.15,-0.43,16154.65134257004,0.000938
413,1900-01-01 21:52:58.800,21.796503,39.074303,35.84,2338,666,17822,6,-10,-5,-77.13,-8.38,-0.42,16150.068606665422,0.000984
414,1900-01-01 21:52:58.900,21.796495,39.074295,36.74,2860,-918,13200,-3,-30,-4,-77.1,-8.51,-0.47,16252.13216781109,0.001214
415,1900-01-01 21:52:59.000,21.79649,39.074287,37.4,2490,-90,17974,5,-2,-6,-77.06,-8.56,-0.38,17995.148901856857,0.000996
416,1900-01-01 21:52:59.100,21.796484,39.074276,38.16,2060,40,16060,21,7,-3,-77.05,-8.61,-0.4,17599.934658969618,0.001317
417,1900-01-01 21:52:59.200,21.796478,39.074268,39.04,2496,116,18766,1,19,-10,-77.0,-8.74,-0.32,17600.27147517901,0.001062
418,1900-01-01 21:52:59.300,21.796471,39.074257,39.73,2898,124,17422,23,12,-5,-76.96,-8.86,-0.26,17606.276835265315,0.001377
419,1900-01-01 21:52:59.400,21.796465,39.074249,40.46,2672,214,16762,7,-7,-7,-76.95,-8.92,-0.19,17626.09213637555,0.001062
420,1900-01-01 21:52:59.500,21.796457,39.074238,41.24,2538,-750,19778,15,9,-10,-76.91,-8.92,-0.18,17661.819385329472,0.001443
421,1900-01-01 21:52:59.600,21.796452,39.07423,41.86,2920,-544,13958,5,-19,-4,-76.84,-9.06,-0.13,16994.94207109868,0.000996
422,1900-01-01 21:52:59.800,21.796436,39.074211,43.2,2990,260,18124,22,2,-7,-76.82,-9.1,-0.06,16459.98602672554,0.002648
423,1900-01-01 21:52:59.900,21.796431,39.0742,44.39,2796,230,14548,-14,2,1,-76.8,-9.14,-0.04,14841.182702197288,0.001264
424,1900-01-01 21:53:00.000,21.796423,39.074192,45.2,2472,-300,16218,4,-15,-1,-76.78,-9.17,-0.08,14852.084298171756,0.001214
425,1900-01-01 21:53:00.100,21.796415,39.074181,46.1,3028,-1032,13996,3,2,9,-76.79,-9.1,-0.14,14817.284501554257,0.001443
426,1900-01-01 21:53:00.200,21.796406,39.074169,47.42,3702,-2,14194,-16,2,8,-76.83,-9.07,-0.16,16215.927602206419,0.001593
427,1900-01-01 21:53:00.400,21.796392,39.074146,48.51,2728,-532,15982,4,-4,4,-76.86,-9.11,-0.17,16257.1783529615,0.002839
428,1900-01-01 21:53:00.500,21.796383,39.074139,49.53,2204,-80,18260,13,2,3,-76.88,-9.11,-0.17,16215.079648278019,0.001234
429,1900-01-01 21:53:00.600,21.796375,39.074127,50.4,2968,-250,18696,18,11,4,-76.9,-9.0,-0.23,17986.664615764646,0.001525
430,1900-01-01 21:53:00.700,21.796368,39.074116,51.16,2490,-366,14862,-23,0,7,-76.93,-8.87,-0.24,17947.59638503162,0.001377
431,1900-01-01 21:53:00.800,21.796358,39.074104,51.25,1634,-352,17810,-3,-2,3,-76.96,-8.67,-0.33,15884.245654106462,0.001665
432,1900-01-01 21:53:00.900,21.79635,39.074093,51.74,1582,176,15448,4,0,7,-76.97,-8.44,-0.4,15757.935017000165,0.001443
433,1900-01-01 21:53:01.000,21.796343,39.074081,52.12,1336,-176,15798,6,2,7,-77.0,-8.39,-0.48,15883.253319140887,0.001463
434,1900-01-01 21:53:01.100,21.796333,39.07407,52.77,1778,276,15672,-1,13,6,-77.03,-8.32,-0.46,15898.712652287291,0.001589
435,1900-01-01 21:53:01.200,21.796326,39.074059,53.03,1912,-600,16558,-3,-4,1,-77.05,-8.13,-0.56,15903.391587960097,0.001377
436,1900-01-01 21:53:01.300,21.796316,39.074047,53.37,2016,-584,16976,31,12,6,-77.06,-7.95,-0.61,15778.233234427738,0.001665
437,1900-01-01 21:53:01.400,21.796309,39.074036,53.57,1382,-424,13450,11,-53,4,-77.09,-7.81,-0.53,16636.167106638477,0.001377
438,1900-01-01 21:53:01.500,21.796299,39.074024,53.81,1336,476,15498,-21,6,5,-77.1,-7.43,-0.49,17047.908258786472,0.001665
439,1900-01-01 21:53:01.600,21.796291,39.074009,54.04,1554,178,17300,-12,24,3,-77.13,-7.3,-0.54,15563.207638530046,0.001786
440,1900-01-01 21:53:01.700,21.796282,39.073997,54.34,3240,928,21648,45,54,2,-77.15,-7.48,-0.63,16758.539077139154,0.001593
441,1900-01-01 21:53:01.800,21.796274,39.073986,55.01,1412,-306,15040,-8,-34,3,-77.18,-7.46,-0.55,17366.860050106927,0.001443
442,1900-01-01 21:53:01.900,21.796265,39.073975,55.41,-144,-90,16698,-7,-28,-3,-77.14,-6.87,-0.6,16757.835421079897,0.001514
443,1900-01-01 21:53:02.000,21.796255,39.073963,55.83,1512,614,20876,-10,39,3,-77.14,-6.72,-0.6,16241.74387188765,0.001665
444,1900-01-01 21:53:02.100,21.796246,39.073952,56.28,-30,-1178,16180,-2,48,4,-77.18,-7.07,-0.64,16248.344407969693,0.001514
445,1900-01-01 21:53:02.200,21.796238,39.07394,56.9,2644,608,14676,-31,-45,-3,-77.19,-7.07,-0.71,16248.467496967214,0.001525
446,1900-01-01 21:53:02.300,21.796228,39.073925,57.23,1486,-110,15374,-25,-52,-5,-77.15,-6.64,-0.83,16249.440113431601,0.001907
447,1900-01-01 21:53:02.500,21.796209,39.073902,58.7,1178,-248,16204,-12,21,1,-77.14,-6.44,-0.95,16271.819689266471,0.003178
448,1900-01-01 21:53:02.600,21.7962,39.073887,59.03,1480,-614,16682,-27,19,0,-77.14,-6.42,-1.02,16728.317907070035,0.001844
449,1900-01-01 21:53:02.700,21.79619,39.073875,59.35,1230,-44,17812,-7,-21,0,-77.13,-6.44,-1.13,17528.966312934714,0.001665
450,1900-01-01 21:53:02.800,21.796181,39.073864,59.37,646,-186,19562,26,8,0,-77.13,-6.39,-1.22,17547.51412593818,0.001514
451,1900-01-01 21:53:02.900,21.796173,39.073849,59.45,1988,-608,17484,4,28,-3,-77.13,-6.4,-1.25,17551.446208218855,0.001786
452,1900-01-01 21:53:03.000,21.796164,39.073837,59.57,1570,-168,16574,6,6,-1,-77.12,-6.3,-1.29,16649.233375744363,0.001593
453,1900-01-01 21:53:03.100,21.796154,39.073822,59.85,1528,-126,15486,-25,2,3,-77.13,-6.18,-1.29,16484.666693627747,0.001907
454,1900-01-01 21:53:03.200,21.796144,39.073811,60.29,1752,-350,16406,7,3,-2,-77.13,-6.14,-1.37,15562.107954901225,0.001589
455,1900-01-01 21:53:03.300,21.796135,39.073799,60.76,1462,-1072,11580,-4,-13,-5,-77.1,-6.13,-1.32,15555.369362377738,0.001593
456,1900-01-01 21:53:03.400,21.796124,39.073784,61.39,854,896,14970,15,-74,-26,-77.03,-6.04,-1.03,16450.41531390621,0.001973
457,1900-01-01 21:53:03.500,21.796114,39.073772,61.74,-860,-8,16552,43,-28,-24,-76.88,-5.66,-0.76,16583.880607384992,0.001665
458,1900-01-01 21:53:03.600,21.796104,39.073757,61.92,1208,670,18766,38,24,-17,-76.77,-5.76,-0.42,16585.848666860555,0.001907
459,1900-01-01 21:53:03.700,21.796095,39.073746,62.26,926,446,16632,20,-29,-17,-76.69,-5.86,-0.15,16583.880607384992,0.001514
460,1900-01-01 21:53:03.800,21.796083,39.07373,62.59,960,514,15962,-18,0,-18,-76.6,-5.73,0.03,16663.727554181867,0.002124
461,1900-01-01 21:53:04.000,21.796064,39.073704,63.45,924,-332,14754,-17,1,-16,-76.51,-5.65,0.02,16661.066112347075,0.003416
462,1900-01-01 21:53:04.100,21.796053,39.073689,64.51,352,-670,16650,-16,-3,0,-76.44,-5.45,-0.19,15992.168208219922,0.001973
463,1900-01-01 21:53:04.200,21.796043,39.073677,64.75,1080,-888,17646,-19,12,5,-76.45,-5.35,-0.38,15970.666235320303,0.001665
464,1900-01-01 21:53:04.300,21.796034,39.073662,65.01,524,-298,14984,-20,-20,7,-76.48,-5.26,-0.58,15972.132731729975,0.001844
465,1900-01-01 21:53:04.400,21.796022,39.073647,65.01,-128,-804,15948,-19,-32,5,-76.51,-4.91,-0.8,15968.40693369254,0.002044
466,1900-01-01 21:53:04.500,21.796013,39.073635,65.22,70,-840,14616,-29,4,8,-76.52,-4.49,-0.97,15966.40948992603,0.001593
467,1900-01-01 21:53:04.600,21.796003,39.07362,65.72,-96,-672,15986,-2,-14,7,-76.55,-4.1,-1.13,15968.285568588759,0.001907
468,1900-01-01 21:53:04.700,21.795992,39.073605,65.75,172,-1024,15946,-6,-10,7,-76.57,-3.65,-1.26,16008.086081727572,0.001973
469,1900-01-01 21:53:04.800,21.795982,39.073593,65.96,-32,-696,16010,-8,-2,7,-76.61,-3.41,-1.34,16036.929007762054,0.001665
470,1900-01-01 21:53:04.900,21.795971,39.073578,65.92,-252,-1766,16448,19,-1,8,-76.65,-3.08,-1.46,16042.74602429397,0.001973
471,1900-01-01 21:53:05.000,21.795961,39.073563,65.99,-314,-924,17816,16,-14,6,-76.67,-2.84,-1.52,16488.970980628234,0.001907
472,1900-01-01 21:53:05.100,21.79595,39.073551,66.0,294,-1232,15766,24,6,8,-76.71,-2.57,-1.59,17110.50706437422,0.001741
473,1900-01-01 21:53:05.200,21.79594,39.073536,65.99,-878,-1134,18322,21,9,10,-76.76,-2.23,-1.52,17111.346527962083,0.001907
474,1900-01-01 21:53:05.300,21.795929,39.073521,65.99,-748,360,17070,16,1,7,-76.8,-1.96,-1.5,16380.172526563938,0.001973
475,1900-01-01 21:53:05.400,21.795919,39.073505,65.98,-896,-214,16182,3,-17,7,-76.83,-1.66,-1.51,16380.172526563938,0.001991
476,1900-01-01 21:53:05.500,21.79591,39.073494,65.93,-784,-84,16360,5,7,5,-76.88,-1.28,-1.54,16378.703855922176,0.001514
477,1900-01-01 21:53:05.600,21.795898,39.073479,65.89,-778,-482,14064,-26,11,9,-76.92,-0.97,-1.61,16379.886446492845,0.002044
478,1900-01-01 21:53:05.700,21.795889,39.073463,65.83,-356,28,19072,-2,10,5,-76.96,-0.74,-1.78,16376.070590956793,0.001931
479,1900-01-01 21:53:05.800,21.795877,39.073452,65.73,-526,-482,19412,24,35,7,-77.0,-0.54,-1.92,15999.914249770216,0.001752
480,1900-01-01 21:53:05.900,21.795868,39.073437,65.68,-542,-626,15984,3,6,5,-77.06,-0.28,-1.97,16004.665944655015,0.001844
481,1900-01-01 21:53:06.000,21.795856,39.073421,65.62,-270,-620,15192,2,-6,4,-77.08,-0.18,-1.97,15936.754123722936,0.002124
482,1900-01-01 21:53:06.100,21.795847,39.07341,65.62,-826,-1232,15916,15,-12,4,-77.12,0.06,-1.95,15930.594213650664,0.001514
483,1900-01-01 21:53:06.200,21.795835,39.073395,65.59,220,-252,14122,-7,-10,4,-77.16,0.24,-1.87,15930.35956907439,0.002044
484,1900-01-01 21:53:06.300,21.795826,39.07338,65.54,-252,-628,16536,-10,-18,2,-77.18,0.3,-1.83,15932.635186936277,0.001844
485,1900-01-01 21:53:06.500,21.795805,39.073353,65.24,-810,46,17398,-11,-38,4,-77.22,0.67,-1.91,14306.439529107163,0.003636
486,1900-01-01 21:53:06.600,21.795795,39.073341,65.25,-368,-1656,14302,6,65,8,-77.25,0.83,-1.96,16537.984036756112,0.001665
487,1900-01-01 21:53:06.700,21.795784,39.073326,65.22,1644,184,13862,-10,-6,9,-77.3,0.45,-1.85,15634.39925292942,0.001973
488,1900-01-01 21:53:06.800,21.795774,39.073311,65.18,1502,72,16744,-13,-44,4,-77.34,0.28,-1.72,14392.6700788978,0.001907
489,1900-01-01 21:53:06.900,21.795763,39.073299,64.98,-918,-588,15630,-31,2,7,-77.38,0.48,-1.72,15713.0088779966,0.001741
490,1900-01-01 21:53:07.000,21.795753,39.073284,64.88,2546,-716,14260,-56,1,25,-77.46,0.08,-1.97,16714.822643390507,0.001907
491,1900-01-01 21:53:07.200,21.795732,39.073257,64.86,738,-3320,16664,-80,-50,64,-77.7,-0.11,-2.67,17026.304355320328,0.003636
492,1900-01-01 21:53:07.300,21.795723,39.073242,64.88,1088,-5884,16862,-97,-4,123,-78.37,-0.11,-4.24,17624.90102099867,0.001844
493,1900-01-01 21:53:07.400,21.795712,39.073231,64.89,1636,-5636,18136,-60,11,148,-79.35,-0.41,-6.09,17801.42623499589,0.001669
494,1900-01-01 21:53:07.500,21.795702,39.073215,64.84,-132,-6336,16422,3,-8,152,-80.42,-0.71,-7.76,18191.647424024028,0.001991
495,1900-01-01 21:53:07.600,21.795691,39.0732,64.86,894,-5188,18042,51,11,141,-81.67,-0.98,-9.02,18050.743364194175,0.001973
496,1900-01-01 21:53:07.700,21.795681,39.073189,64.89,1028,-3820,17266,59,-3,111,-82.51,-1.19,-9.38,17667.108195740468,0.001589
497,1900-01-01 21:53:07.900,21.79566,39.073162,64.93,416,-2412,14922,90,6,61,-83.1,-1.36,-9.1,17417.004794165958,0.003636
498,1900-01-01 21:53:08.000,21.795649,39.073147,64.93,994,16,17226,108,20,1,-83.33,-1.61,-8.02,15873.460114291402,0.001973
499,1900-01-01 21:53:08.100,21.795639,39.073135,64.9,394,2346,15868,86,-8,-56,-83.16,-1.66,-6.2,16045.322558303402,0.001665
500,1900-01-01 21:53:08.200,21.795628,39.07312,64.97,-52,3938,14898,62,-51,-114,-82.63,-1.4,-4.19,16349.43338467728,0.001973
501,1900-01-01 21:53:08.300,21.795618,39.073105,64.99,-342,5406,15968,56,-32,-167,-81.46,-0.86,-1.38,16767.08752288244,0.001907
502,1900-01-01 21:53:08.400,21.795607,39.073093,65.2,-588,6000,15434,49,-9,-181,-80.3,-0.47,0.67,17018.0934302289,0.001741
503,1900-01-01 21:53:08.500,21.795595,39.073078,65.46,-698,6448,19856,47,8,-187,-79.29,-0.13,2.34,17034.667358067196,0.002044
504,1900-01-01 21:53:08.700,21.795574,39.073051,65.61,-888,5856,17652,32,27,-183,-78.15,0.13,4.01,18420.344947910176,0.003636
505,1900-01-01 21:53:08.800,21.795563,39.07304,65.65,-996,5892,15906,-10,15,-164,-76.88,0.29,5.61,18624.6572048991,0.001669
506,1900-01-01 21:53:08.900,21.795551,39.073025,65.6,-1440,5190,17430,-25,46,-139,-75.75,0.51,6.59,18213.53935949847,0.002044
507,1900-01-01 21:53:09.000,21.795542,39.073009,65.59,-1286,4350,20014,-14,10,-115,-74.9,0.53,7.09,17767.546819974894,0.001931
508,1900-01-01 21:53:09.100,21.79553,39.072998,65.6,-370,2676,15602,-78,-6,-76,-73.99,0.68,7.1,17435.87175910628,0.001752
509,1900-01-01 21:53:09.200,21.795519,39.072983,65.55,-98,1966,17198,-56,3,-52,-73.67,0.72,6.74,15731.040779300014,0.001973
510,1900-01-01 21:53:09.300,21.795509,39.072971,65.56,-1038,432,14712,-52,-27,-34,-73.44,0.95,6.17,15344.545610737387,0.001665
511,1900-01-01 21:53:09.500,21.795486,39.072945,65.53,-422,-270,14378,-27,17,-28,-73.26,1.06,5.6,15338.161949855661,0.003708
512,1900-01-01 21:53:09.600,21.795477,39.072929,65.22,-234,-524,15334,-23,-10,-19,-73.13,1.07,5.11,15345.615921167844,0.001931
513,1900-01-01 21:53:09.700,21.795467,39.072914,65.14,-4,-1252,17388,-14,15,10,-73.11,1.09,4.39,17434.58643042616,0.001907
514,1900-01-01 21:53:09.800,21.795458,39.072899,65.07,-286,-2208,19314,-20,22,56,-73.37,1.13,3.31,17529.191766878474,0.001844
515,1900-01-01 21:53:09.900,21.795446,39.072887,65.07,128,-4350,18502,-90,4,124,-74.35,1.04,0.78,17924.029122939966,0.001821
516,1900-01-01 21:53:10.000,21.795437,39.072872,65.13,-392,-5752,15992,-70,0,155,-75.16,0.94,-1.03,17487.237517687005,0.001844
517,1900-01-01 21:53:10.100,21.795427,39.072857,65.22,-76,-6862,16514,-10,12,162,-76.15,0.73,-2.88,16995.468572534268,0.001907
518,1900-01-01 21:53:10.300,21.795408,39.07283,65.18,570,-6202,14918,-2,-13,159,-77.13,0.46,-4.35,17000.52716829687,0.003498
519,1900-01-01 21:53:10.400,21.795397,39.072815,65.2,594,-5418,13290,-11,-23,160,-78.28,0.2,-5.78,15877.725025960111,0.001973
520,1900-01-01 21:53:10.500,21.795387,39.0728,65.26,434,-4938,18046,16,-2,145,-79.3,-0.05,-6.83,15720.40940942697,0.001907
521,1900-01-01 21:53:10.600,21.795378,39.072788,65.34,448,-3186,13986,41,4,87,-80.59,-0.39,-7.68,15298.144854850865,0.001593
522,1900-01-01 21:53:10.700,21.795366,39.072773,65.3,124,-1466,14956,67,-15,45,-80.95,-0.5,-7.44,15033.943195316391,0.002044
523,1900-01-01 21:53:10.900,21.795347,39.072746,65.42,448,418,17290,76,-19,-11,-81.11,-0.34,-6.44,14962.353959187038,0.003498
524,1900-01-01 21:53:11.000,21.795336,39.072731,65.46,-412,846,13950,32,-9,-38,-80.9,-0.01,-4.86,14981.52368752925,0.001973
525,1900-01-01 21:53:11.100,21.795326,39.072716,65.55,-220,2932,15034,39,-10,-74,-80.43,0.1,-3.13,15322.777946573526,0.001907
526,1900-01-01 21:53:11.300,21.795305,39.072689,65.9,-942,3392,13340,53,-29,-114,-79.8,0.39,-1.57,15440.6665659226,0.003636
527,1900-01-01 21:53:11.400,21.795294,39.072674,65.91,-1134,5054,15756,41,-48,-147,-78.89,0.75,0.26,16575.025671171676,0.001973
528,1900-01-01 21:53:11.500,21.795284,39.072662,65.84,-968,6128,15844,9,30,-161,-77.8,1.21,2.01,16669.1693854253,0.001665
529,1900-01-01 21:53:11.600,21.795273,39.072647,65.5,-1384,5204,16220,-46,6,-146,-76.72,1.32,3.32,16670.958340779333,0.001973
530,1900-01-01 21:53:11.700,21.795263,39.072636,65.45,-1290,3794,16226,-46,12,-119,-75.82,1.4,4.1,16698.156664733986,0.001589
531,1900-01-01 21:53:11.800,21.795252,39.07262,65.41,-1160,2172,14916,-55,9,-84,-75.13,1.42,4.3,16405.83993582773,0.002055
532,1900-01-01 21:53:11.900,21.795242,39.072605,65.38,-470,1346,16890,-45,13,-34,-74.66,1.48,3.9,16293.080003486142,0.001907
533,1900-01-01 21:53:12.000,21.795231,39.072594,65.33,-608,0,16022,-45,2,-8,-74.55,1.54,3.24,16067.5075851857,0.001669
534,1900-01-01 21:53:12.200,21.79521,39.072567,65.21,-170,-320,17984,-27,12,10,-74.58,1.54,2.71,16068.74145662939,0.003636
535,1900-01-01 21:53:12.300,21.795198,39.072552,65.17,-744,-608,16056,-13,-2,19,-74.72,1.56,1.94,16038.463143331408,0.002044
536,1900-01-01 21:53:12.400,21.795189,39.072536,64.96,-554,-1404,15674,-20,-27,22,-74.9,1.58,1.34,16077.055576193048,0.001931
537,1900-01-01 21:53:12.500,21.795179,39.072525,64.85,218,-470,15558,-5,20,21,-75.07,1.62,0.85,16121.009521739015,0.001589
538,1900-01-01 21:53:12.600,21.795168,39.07251,64.78,-1184,-1336,17672,0,3,22,-75.29,1.53,0.25,16009.760148109652,0.001973
539,1900-01-01 21:53:12.700,21.795158,39.072495,64.68,-50,-1470,16306,-27,-1,24,-75.42,1.53,-0.11,16360.716121246038,0.001907
540,1900-01-01 21:53:12.900,21.795137,39.072468,64.7,50,-1420,15948,-10,5,19,-75.58,1.52,-0.56,16360.909754656066,0.003636
541,1900-01-01 21:53:13.000,21.795128,39.072456,64.67,-94,-450,16422,-11,3,20,-75.72,1.61,-0.91,15992.166707485261,0.001593
542,1900-01-01 21:53:13.100,21.795118,39.072441,64.62,-238,-536,14894,-8,-8,14,-75.86,1.61,-1.22,15993.661369430078,0.001907
543,1900-01-01 21:53:13.200,21.795109,39.072426,64.36,-600,-1184,14386,-4,-23,9,-75.97,1.63,-1.41,15610.94564720536,0.001844
544,1900-01-01 21:53:13.300,21.795097,39.072414,64.23,-550,-1194,16406,-13,-27,10,-76.03,1.66,-1.48,15323.264143125642,0.001821
545,1900-01-01 21:53:13.400,21.795088,39.072399,63.95,-322,-652,15594,-10,-13,10,-76.09,1.63,-1.57,15620.905351483312,0.001844
546,1900-01-01 21:53:13.600,21.795069,39.072372,63.25,-254,-604,15306,-11,-26,9,-76.15,1.64,-1.63,15610.94564720536,0.003498
547,1900-01-01 21:53:13.700,21.795059,39.072361,63.25,48,-858,16568,6,4,8,-76.2,1.69,-1.68,15607.759864887721,0.001589
548,1900-01-01 21:53:13.800,21.79505,39.072346,63.13,-866,-514,15058,5,7,10,-76.26,1.7,-1.68,15320.018537847793,0.001844
549,1900-01-01 21:53:13.900,21.79504,39.07233,63.11,-20,-382,16376,-4,0,6,-76.3,1.64,-1.64,16392.237431174548,0.001991
550,1900-01-01 21:53:14.000,21.795029,39.072319,63.12,-422,-606,14724,4,-27,7,-76.36,1.64,-1.67,16389.498344976884,0.001669
551,1900-01-01 21:53:14.100,21.795019,39.072304,63.14,-406,-1112,17456,18,-3,9,-76.42,1.76,-1.63,17471.612862011338,0.001907
552,1900-01-01 21:53:14.200,21.79501,39.072292,63.19,-614,-218,18754,31,34,9,-76.49,1.76,-1.56,17471.612862011338,0.001593
553,1900-01-01 21:53:14.300,21.795,39.072277,63.15,-432,-770,18186,3,25,8,-76.54,1.53,-1.44,17478.31399191581,0.001907
554,1900-01-01 21:53:14.400,21.794991,39.072266,63.13,88,-534,14138,-22,-14,10,-76.62,1.37,-1.48,16075.119284160848,0.001514
555,1900-01-01 21:53:14.500,21.794979,39.07225,63.1,-966,-838,15298,12,-20,5,-76.68,1.54,-1.59,15317.867475598554,0.002124
556,1900-01-01 21:53:14.700,21.79496,39.072224,63.02,-448,-272,16060,4,-21,7,-76.72,1.63,-1.59,15326.262166621058,0.003416
557,1900-01-01 21:53:14.800,21.79495,39.072212,62.98,-890,-248,15302,7,-9,8,-76.77,1.68,-1.57,15675.322389029197,0.001665
558,1900-01-01 21:53:14.900,21.794941,39.072197,62.95,-818,-192,18170,10,19,10,-76.81,1.59,-1.5,16076.302559979393,0.001844
559,1900-01-01 21:53:15.000,21.79493,39.072186,62.86,-346,-226,15652,-1,-2,9,-76.87,1.55,-1.49,15675.322389029197,0.001669
560,1900-01-01 21:53:15.100,21.79492,39.07217,62.78,-680,-532,21268,1,-2,3,-76.92,1.51,-1.5,15977.575285380444,0.001991
561,1900-01-01 21:53:15.200,21.79491,39.072159,62.72,-924,-476,14376,-9,13,8,-76.97,1.61,-1.61,15673.544717134027,0.001589
562,1900-01-01 21:53:15.300,21.794901,39.072144,62.69,-626,-1290,15956,-15,23,8,-77.04,1.49,-1.68,16006.947116799005,0.001844
563,1900-01-01 21:53:15.400,21.794891,39.072132,62.59,-432,-1112,13012,-43,-34,10,-77.08,1.34,-1.8,15014.217395522151,0.001665
564,1900-01-01 21:53:15.600,21.79487,39.072105,62.48,124,-1272,17306,-20,-2,27,-77.2,1.47,-2.16,16009.656835797574,0.003636
565,1900-01-01 21:53:15.700,21.794861,39.07209,62.29,90,-2366,14954,-38,0,61,-77.52,1.58,-2.82,15569.091174503412,0.001844
566,1900-01-01 21:53:15.800,21.794851,39.072079,62.24,-226,-2844,18876,-13,34,85,-77.99,1.46,-3.61,15648.86513457126,0.001589
567,1900-01-01 21:53:15.900,21.794842,39.072063,62.26,1448,-3206,15388,-12,6,89,-78.58,1.12,-4.4,15707.690473140856,0.001931
568,1900-01-01 21:53:16.000,21.794832,39.072052,62.23,-306,-3150,15102,-15,-69,80,-79.1,1.0,-4.94,15708.727510527387,0.001589
569,1900-01-01 21:53:16.100,21.794821,39.072037,62.27,-136,-3446,17224,-17,-17,87,-79.69,1.19,-5.46,15719.016381440666,0.001973
570,1900-01-01 21:53:16.200,21.794811,39.072025,62.12,-322,-2908,14262,-27,26,93,-80.27,0.97,-5.96,15486.104610262712,0.001665
571,1900-01-01 21:53:16.300,21.794802,39.072014,62.14,208,-3414,16320,-19,-4,86,-80.85,0.5,-6.43,16676.3749058361,0.001514
572,1900-01-01 21:53:16.400,21.79479,39.071999,62.17,-568,-3862,14912,19,-1,85,-81.42,0.3,-6.9,15196.31178937837,0.002044
573,1900-01-01 21:53:16.500,21.794781,39.071987,62.13,-704,-2400,16986,34,-11,75,-82.22,0.15,-7.22,15126.413983492585,0.001593
574,1900-01-01 21:53:16.600,21.794771,39.071972,62.07,376,-1086,14188,31,-32,48,-82.51,0.15,-7.05,14980.012950595203,0.001907
575,1900-01-01 21:53:16.700,21.79476,39.07196,62.04,-746,-512,14924,35,-37,3,-82.7,0.22,-6.37,16093.55958139777,0.001741
576,1900-01-01 21:53:16.900,21.794741,39.071934,62.01,-924,272,16070,40,-5,-17,-82.66,0.35,-5.67,14929.180017670093,0.003416
577,1900-01-01 21:53:17.000,21.794729,39.071922,61.94,46,852,16488,29,-6,-32,-82.49,0.37,-4.69,14958.816664429041,0.001821
578,1900-01-01 21:53:17.100,21.79472,39.071911,61.79,-284,1338,14132,18,-12,-41,-82.25,0.48,-3.86,14583.7143416895,0.001514
579,1900-01-01 21:53:17.200,21.794708,39.071899,62.0,-662,776,14202,19,2,-46,-81.95,0.61,-3.04,14345.43732341402,0.001821
580,1900-01-01 21:53:17.300,21.794697,39.071884,61.94,-868,600,14548,6,19,-45,-81.64,0.79,-2.38,14341.191582291898,0.001973
581,1900-01-01 21:53:17.400,21.794685,39.071873,61.96,-482,1212,14312,1,12,-39,-81.35,0.79,-1.81,14583.7143416895,0.001752
582,1900-01-01 21:53:17.500,21.794676,39.071861,62.03,-484,632,15894,-12,-30,-34,-81.11,0.84,-1.35,15619.431615779109,0.001593
583,1900-01-01 21:53:17.600,21.794664,39.07185,62.01,-714,1086,18260,-8,6,-37,-80.85,1.01,-1.01,15934.626572342384,0.001752
584,1900-01-01 21:53:17.700,21.794653,39.071835,62.03,-628,336,15594,-3,21,-33,-80.55,1.04,-0.71,15918.952352463399,0.001973
585,1900-01-01 21:53:17.800,21.794643,39.071823,62.17,-692,948,17816,-4,-1,-28,-80.35,1.07,-0.5,17061.621142200995,0.001665
586,1900-01-01 21:53:17.900,21.794632,39.071812,62.04,-566,178,14596,0,18,-27,-80.18,1.13,-0.36,17060.87324845947,0.001669
587,1900-01-01 21:53:18.100,21.794611,39.071785,61.9,-648,118,17046,-5,-2,-25,-80.03,1.19,-0.25,17828.463646652228,0.003636
588,1900-01-01 21:53:18.200,21.794601,39.071774,61.82,-462,352,18472,11,-3,-22,-79.87,1.18,-0.07,17055.89235425693,0.001589
589,1900-01-01 21:53:18.300,21.79459,39.071762,61.75,406,1034,18970,28,21,-24,-79.73,1.18,0.13,17059.72403059323,0.001741
590,1900-01-01 21:53:18.400,21.794579,39.071751,61.75,-58,822,16846,4,-3,-25,-79.57,1.24,0.38,17397.405093863854,0.001669
591,1900-01-01 21:53:18.500,21.794569,39.071735,61.59,-262,632,16442,6,-10,-24,-79.39,1.33,0.57,17399.389069734603,0.001991
592,1900-01-01 21:53:18.600,21.794558,39.071724,61.55,-702,1076,17376,5,-5,-25,-79.22,1.39,0.76,16872.058558456938,0.001669
593,1900-01-01 21:53:18.700,21.794548,39.071712,61.5,146,900,18058,6,15,-27,-79.08,1.47,0.87,16486.48100717676,0.001665
594,1900-01-01 21:53:18.800,21.794537,39.071697,61.47,-554,1334,14756,-6,-21,-27,-78.9,1.52,0.99,16044.688716207616,0.001973
595,1900-01-01 21:53:18.900,21.794527,39.071686,61.42,-648,1800,15976,3,-8,-44,-78.67,1.57,1.26,16086.624630418899,0.001589
596,1900-01-01 21:53:19.000,21.794518,39.071674,61.22,-994,2400,13186,34,-26,-93,-78.02,1.64,2.21,16168.095496996546,0.001593
597,1900-01-01 21:53:19.100,21.794506,39.071663,61.32,-478,3714,16034,49,1,-126,-77.3,1.67,3.32,16471.273660527895,0.001752
598,1900-01-01 21:53:19.200,21.794497,39.071648,61.28,-644,5436,19020,44,4,-136,-76.46,1.76,4.44,16700.57891212158,0.001844
599,1900-01-01 21:53:19.400,21.794476,39.071625,61.22,-1202,4954,18346,3,-6,-129,-75.61,1.87,5.38,16845.276251816114,0.00333
600,1900-01-01 21:53:19.500,21.794464,39.071613,61.11,-1188,3496,16252,-5,-1,-120,-74.74,1.94,6.07,18510.973286134904,0.001821
601,1900-01-01 21:53:19.600,21.794455,39.071598,61.07,-1070,3936,16344,-13,27,-111,-74.08,1.96,6.46,16747.932767956765,0.001844
602,1900-01-01 21:53:19.700,21.794445,39.071587,61.04,-752,2790,18056,-30,5,-91,-73.45,1.94,6.64,16614.91306026005,0.001589
603,1900-01-01 21:53:19.800,21.794434,39.071575,60.9,-1010,950,15282,-36,10,-67,-72.95,1.92,6.5,17322.447055771307,0.001741
604,1900-01-01 21:53:19.900,21.794424,39.071564,60.81,-1390,1716,17314,-19,16,-53,-72.57,1.77,6.3,17272.08499284322,0.001589
605,1900-01-01 21:53:20.000,21.794415,39.071548,60.62,-1202,942,17204,10,13,-49,-72.29,1.7,6.07,17195.945801263737,0.001931
606,1900-01-01 21:53:20.100,21.794403,39.071537,60.62,-1228,758,17128,-12,7,-41,-71.99,1.72,5.86,17190.21907946493,0.001752
607,1900-01-01 21:53:20.200,21.794394,39.071526,60.44,-1154,792,16834,-7,20,-29,-71.8,1.75,5.47,16893.872380244855,0.001514
608,1900-01-01 21:53:20.300,21.794384,39.07151,60.29,-1506,420,13348,-39,-25,-13,-71.69,1.74,5.05,16330.241027002632,0.001991
609,1900-01-01 21:53:20.400,21.794374,39.071499,60.05,-840,-790,16284,-48,-4,-6,-71.64,1.77,4.47,15790.371876558196,0.001589
610,1900-01-01 21:53:20.500,21.794367,39.071484,59.75,-402,-68,15606,-55,-41,1,-71.63,1.98,3.72,15791.02086630247,0.001733
611,1900-01-01 21:53:20.600,21.794357,39.071472,59.62,-1372,-1726,15748,-32,-18,9,-71.7,2.31,2.78,15837.82510321414,0.001665
612,1900-01-01 21:53:20.700,21.79435,39.071457,59.54,-856,-2006,16154,4,33,20,-71.81,2.29,2.16,15847.403068010859,0.001733
613,1900-01-01 21:53:20.800,21.79434,39.071445,59.57,-32,-1460,15544,-2,11,32,-71.99,2.07,1.64,16252.023381720812,0.001665
614,1900-01-01 21:53:21.000,21.794323,39.071419,59.3,364,-1782,16986,-10,-7,40,-72.28,2.0,0.97,16957.89149629163,0.003283
615,1900-01-01 21:53:21.100,21.794313,39.071404,59.5,8,-2178,17102,-31,7,50,-72.52,1.98,0.46,16958.117938026026,0.001907
616,1900-01-01 21:53:21.200,21.794306,39.071392,59.41,88,-1738,16864,-27,-6,55,-72.88,1.94,-0.28,17079.445658451565,0.001463
617,1900-01-01 21:53:21.300,21.794296,39.071377,59.27,222,-2968,15806,-1,-3,56,-73.29,1.81,-1.08,17235.67033799382,0.001907
618,1900-01-01 21:53:21.400,21.794289,39.071365,59.19,42,-916,19756,15,10,51,-73.68,1.75,-1.56,17568.230758958056,0.001463
619,1900-01-01 21:53:21.500,21.794279,39.07135,59.03,-724,-2142,17482,65,-15,42,-74.03,1.74,-1.98,17821.558854376348,0.001907
620,1900-01-01 21:53:21.600,21.79427,39.071339,59.14,-10,-734,17798,56,-5,32,-74.27,1.74,-1.91,17814.058605494705,0.001514
621,1900-01-01 21:53:21.700,21.794262,39.071327,59.16,-182,184,18960,31,18,18,-74.47,1.72,-1.65,17507.754967442284,0.001525
622,1900-01-01 21:53:21.800,21.794252,39.071312,59.16,-602,-294,15460,10,5,21,-74.62,1.59,-1.71,17814.058605494705,0.001907
623,1900-01-01 21:53:21.900,21.794245,39.071301,59.14,-790,-1134,13402,5,-7,27,-74.81,1.5,-1.9,15507.891281537926,0.001377
624,1900-01-01 21:53:22.100,21.794228,39.071274,59.02,-160,-1488,19556,-31,23,16,-74.95,1.4,-2.01,15507.891281537926,0.003368
625,1900-01-01 21:53:22.200,21.794218,39.071262,58.9,-444,-1460,15062,12,9,19,-75.05,1.36,-2.18,19214.631612393718,0.001665
626,1900-01-01 21:53:22.300,21.794209,39.071247,58.89,22,-418,20052,4,-14,18,-75.16,1.37,-2.21,19199.49666006898,0.001844
627,1900-01-01 21:53:22.400,21.794201,39.071236,58.86,-782,-936,19176,-3,-2,15,-75.29,1.48,-2.3,17745.208480037647,0.001443
628,1900-01-01 21:53:22.500,21.794191,39.07122,58.82,-144,304,17718,2,29,19,-75.39,1.34,-2.38,17729.781724544722,0.001991
629,1900-01-01 21:53:22.600,21.794182,39.071209,58.71,-298,-1688,16092,-19,23,23,-75.52,1.21,-2.52,16141.915747518942,0.001514
630,1900-01-01 21:53:22.700,21.794172,39.071198,58.78,634,-630,16112,-8,17,17,-75.65,0.96,-2.68,16127.06569714404,0.001589
631,1900-01-01 21:53:22.800,21.794165,39.071182,58.62,-504,-1878,15902,12,-37,16,-75.77,1.0,-2.81,16127.06569714404,0.001826
632,1900-01-01 21:53:22.900,21.794155,39.071171,58.58,-400,-440,16830,49,-10,12,-75.94,1.32,-2.65,16582.649727953612,0.001589
633,1900-01-01 21:53:23.000,21.794146,39.071159,58.47,248,-126,18628,32,28,8,-76.01,1.39,-2.35,16831.821054181866,0.001593
634,1900-01-01 21:53:23.200,21.794128,39.071133,58.47,164,-180,16576,-17,15,12,-76.08,1.14,-2.11,16831.54478947194,0.003348
635,1900-01-01 21:53:23.300,21.794121,39.071117,58.45,-170,370,19906,-13,33,10,-76.12,0.99,-2.06,16577.568458612983,0.001826
636,1900-01-01 21:53:23.400,21.794111,39.071106,58.28,140,-468,16026,-41,-12,9,-76.19,0.86,-2.21,16583.196314341818,0.001589
637,1900-01-01 21:53:23.500,21.794102,39.071095,58.29,98,-1206,13098,-21,-8,5,-76.24,0.84,-2.38,18796.99135500147,0.001514
638,1900-01-01 21:53:23.600,21.794094,39.071079,58.23,266,-964,18772,-5,-3,15,-76.31,0.86,-2.56,16071.612115777309,0.001876
639,1900-01-01 21:53:23.700,21.794085,39.071068,58.29,-212,-2726,19280,-7,32,58,-76.58,0.84,-3.12,16578.68969490653,0.001514
640,1900-01-01 21:53:23.800,21.794077,39.071056,58.31,-346,-2412,14516,-41,-4,94,-77.09,0.67,-3.88,16966.893292527067,0.001525
641,1900-01-01 21:53:23.900,21.794067,39.071041,58.36,122,-3204,16402,-29,-47,95,-77.73,0.46,-4.74,17050.22017453147,0.001907
642,1900-01-01 21:53:24.000,21.794058,39.07103,58.5,-126,-3440,16746,-2,9,97,-78.54,0.52,-5.64,16759.29855334047,0.001514
643,1900-01-01 21:53:24.200,21.794041,39.071003,58.07,166,-3448,17914,-3,2,96,-79.12,0.22,-6.09,16761.320473041495,0.003368
644,1900-01-01 21:53:24.300,21.794031,39.070992,58.17,758,-3608,15042,-2,-24,96,-79.68,-0.05,-6.55,15433.017332978021,0.001589
645,1900-01-01 21:53:24.400,21.794022,39.07098,57.98,448,-3728,14892,-1,-37,93,-80.26,-0.12,-6.82,15286.854614341042,0.001593
646,1900-01-01 21:53:24.500,21.794012,39.070969,57.99,92,-2792,14500,16,-1,82,-80.85,-0.16,-6.99,15158.08800607781,0.001589
647,1900-01-01 21:53:24.600,21.794003,39.070953,57.93,-510,-2710,11842,0,-29,70,-81.3,-0.2,-7.02,14757.872610915165,0.001931
648,1900-01-01 21:53:24.700,21.793993,39.070942,58.04,660,-1776,16158,-2,2,57,-81.72,-0.27,-7.0,14659.341867901165,0.001589
649,1900-01-01 21:53:24.800,21.793983,39.07093,58.07,670,-2052,12872,-23,-16,43,-82.09,-0.29,-6.92,15605.443793753511,0.001665
650,1900-01-01 21:53:24.900,21.793972,39.070919,58.25,756,-782,15490,13,-33,26,-82.34,-0.3,-6.67,15723.333743198355,0.001669
651,1900-01-01 21:53:25.000,21.793962,39.070908,58.19,396,516,15690,64,-25,-3,-82.47,-0.22,-5.91,15695.327967264653,0.001589
652,1900-01-01 21:53:25.100,21.793953,39.070896,58.2,-316,102,17322,68,10,-23,-82.4,-0.07,-5.04,15954.401524344308,0.001593
653,1900-01-01 21:53:25.300,21.793934,39.070873,58.25,-314,1620,16850,51,28,-32,-82.23,-0.14,-4.11,16879.953198987252,0.003178
654,1900-01-01 21:53:25.400,21.793924,39.070862,58.18,-256,972,15944,22,5,-29,-82.02,-0.24,-3.24,17391.941352247024,0.001589
655,1900-01-01 21:53:25.500,21.793915,39.07085,58.23,246,1536,19146,11,3,-38,-81.81,-0.12,-2.57,18511.611167048643,0.001593
656,1900-01-01 21:53:25.600,21.793903,39.070839,58.35,-262,1670,18446,19,21,-45,-81.53,-0.09,-1.91,18489.672468705336,0.001752
657,1900-01-01 21:53:25.700,21.793894,39.070824,58.37,378,1244,18680,16,13,-46,-81.2,-0.18,-1.27,18511.47557597719,0.001844
658,1900-01-01 21:53:25.800,21.793884,39.070812,58.63,-578,604,15102,-11,0,-45,-80.89,-0.13,-0.78,17438.861201351425,0.001665
659,1900-01-01 21:53:25.900,21.793875,39.070801,58.63,472,1590,17364,-13,10,-46,-80.48,-0.09,-0.25,17418.6187741738,0.001514
660,1900-01-01 21:53:26.100,21.793854,39.070778,58.71,278,1754,17118,7,-3,-44,-80.21,-0.16,0.07,17171.841485408604,0.00333
661,1900-01-01 21:53:26.200,21.793844,39.070766,58.66,-154,1350,17458,-7,-23,-36,-80.0,-0.1,0.28,17171.293602987516,0.001665
662,1900-01-01 21:53:26.300,21.793835,39.070755,58.67,-378,950,16494,8,6,-37,-79.77,-0.06,0.51,16743.681554544688,0.001514
663,1900-01-01 21:53:26.400,21.793825,39.070744,58.77,70,466,14094,-19,11,-36,-79.52,-0.03,0.74,16727.25942884847,0.001589
664,1900-01-01 21:53:26.500,21.793816,39.070732,58.76,-402,594,16716,-1,8,-37,-79.27,0.03,0.89,16501.09366072443,0.001593
665,1900-01-01 21:53:26.600,21.793806,39.070721,58.75,-60,308,16872,17,21,-36,-79.03,-0.0,1.08,14097.964392067388,0.001589
666,1900-01-01 21:53:26.700,21.793797,39.070705,58.73,-130,248,14002,-1,-11,-36,-78.78,-0.03,1.33,16719.34269042895,0.001931
667,1900-01-01 21:53:26.800,21.793787,39.070694,58.74,-422,184,14082,-13,-24,-36,-78.53,0.13,1.56,15351.64056379643,0.001589
668,1900-01-01 21:53:26.900,21.793776,39.070683,58.86,-56,752,17496,5,-1,-34,-78.2,0.24,1.86,15366.961573453615,0.001669
669,1900-01-01 21:53:27.100,21.793756,39.07066,58.75,-132,1356,15348,25,8,-33,-77.99,0.19,2.05,15483.926762937108,0.003253
670,1900-01-01 21:53:27.200,21.793747,39.070648,58.74,154,1158,15440,-19,-31,-37,-77.78,0.12,2.34,17389.452435312618,0.001593
671,1900-01-01 21:53:27.300,21.793737,39.070637,58.77,-762,2416,19332,22,-9,-62,-77.42,0.36,2.65,16890.863092216456,0.001589
672,1900-01-01 21:53:27.400,21.793728,39.070621,58.88,-490,3664,17336,58,17,-118,-76.81,0.38,3.55,17725.740943610792,0.001931
673,1900-01-01 21:53:27.500,21.793718,39.07061,58.91,-492,5746,16710,20,20,-133,-75.84,0.13,4.78,18853.942293324228,0.001589
674,1900-01-01 21:53:27.600,21.793709,39.070599,58.97,558,5288,20716,25,29,-112,-75.01,0.15,5.31,17725.740943610792,0.001514
675,1900-01-01 21:53:27.700,21.793699,39.070587,59.02,1258,2376,18488,-52,1,-91,-74.1,0.27,5.6,17243.159919225942,0.001665
676,1900-01-01 21:53:27.900,21.79368,39.070564,59.02,-2244,1108,15456,-29,-25,-78,-73.63,0.25,5.54,17157.814079887914,0.003178
677,1900-01-01 21:53:28.000,21.793671,39.070549,59.02,-152,1190,17078,11,50,-65,-73.17,0.16,5.45,16527.590992035108,0.001844
678,1900-01-01 21:53:28.100,21.793661,39.070538,58.99,948,1556,15736,8,34,-50,-72.85,-0.15,5.42,15781.663410426672,0.001589
679,1900-01-01 21:53:28.200,21.793652,39.070526,59.15,268,1598,16452,-5,-18,-33,-72.6,-0.19,5.29,16497.15817951686,0.001593
680,1900-01-01 21:53:28.300,21.793642,39.070515,59.07,-424,626,15378,-1,-20,-23,-72.41,-0.01,5.01,16467.252472710803,0.001589
681,1900-01-01 21:53:28.400,21.793634,39.070499,59.06,332,164,18646,-12,-19,-26,-72.26,0.09,4.72,16458.342200841493,0.001876
682,1900-01-01 21:53:28.500,21.793625,39.070488,58.99,372,370,17698,-7,-1,-19,-72.13,0.12,4.41,17699.009463808983,0.001514
683,1900-01-01 21:53:28.600,21.793615,39.070473,58.83,94,-656,13638,-51,-14,-4,-72.05,0.13,3.96,17710.40304453854,0.001907
684,1900-01-01 21:53:28.700,21.793608,39.070461,58.86,-56,-724,19692,-19,4,13,-72.09,0.22,3.23,16771.897567061398,0.001463
685,1900-01-01 21:53:28.800,21.7936,39.07045,58.92,-90,-1508,13608,-9,12,27,-72.25,0.15,2.48,15301.630893470146,0.001443
686,1900-01-01 21:53:28.900,21.793591,39.070435,59.05,388,-1204,16756,4,-19,38,-72.57,-0.0,1.53,16823.75570436043,0.001844
687,1900-01-01 21:53:29.100,21.793575,39.070408,59.46,76,-1636,15254,-30,-24,56,-72.79,0.05,1.01,15341.517786711978,0.003307
688,1900-01-01 21:53:29.200,21.793566,39.070396,59.53,34,-1692,18052,4,-20,65,-73.18,0.1,0.3,15347.741071571412,0.001593
689,1900-01-01 21:53:29.300,21.793556,39.070381,59.61,-338,-3016,15064,-25,-21,67,-73.57,0.15,-0.37,15229.290725440893,0.001907
690,1900-01-01 21:53:29.400,21.793549,39.07037,59.62,246,-1948,13286,0,-6,60,-73.95,0.08,-0.94,15229.139043294601,0.001377
691,1900-01-01 21:53:29.500,21.793539,39.070354,59.83,290,-2040,15104,1,-43,44,-74.3,0.05,-1.32,15231.0878140729,0.001991
692,1900-01-01 21:53:29.600,21.793531,39.070343,59.81,-340,-1152,19824,12,-11,29,-74.54,0.12,-1.47,18384.333439099715,0.001443
693,1900-01-01 21:53:29.700,21.793522,39.070328,59.9,352,-1016,18646,22,11,30,-74.74,0.15,-1.64,18384.97484360531,0.001844
694,1900-01-01 21:53:29.800,21.793514,39.070316,59.82,100,-1192,18344,4,20,31,-74.97,0.12,-1.78,18380.40913581632,0.001525
695,1900-01-01 21:53:29.900,21.793505,39.070301,59.92,326,-1464,14874,-4,-8,28,-75.17,0.12,-1.97,17167.234954994936,0.001844
696,1900-01-01 21:53:30.000,21.793495,39.07029,60.11,52,-806,17136,27,9,28,-75.42,0.2,-2.17,16969.447133009373,0.001589
697,1900-01-01 21:53:30.200,21.793478,39.070263,60.15,198,-376,16950,37,-13,30,-75.6,0.2,-2.24,16545.837663896018,0.003368
698,1900-01-01 21:53:30.300,21.793468,39.070248,60.14,-312,-712,13976,-3,-8,31,-75.78,0.14,-2.22,16965.027203043323,0.001907
699,1900-01-01 21:53:30.400,21.793459,39.070236,60.18,130,-380,16530,-2,11,27,-75.96,0.08,-2.28,16545.837663896018,0.001593
700,1900-01-01 21:53:30.500,21.793449,39.070221,60.19,22,-994,17540,-8,26,27,-76.16,0.07,-2.41,16218.020224429367,0.001907
701,1900-01-01 21:53:30.600,21.793442,39.07021,60.24,228,-764,15126,-5,-15,27,-76.33,0.12,-2.55,16218.020224429367,0.001377
702,1900-01-01 21:53:30.700,21.793432,39.070198,60.18,-136,-828,16200,-14,-3,22,-76.57,0.05,-2.54,15672.478425571368,0.001665
703,1900-01-01 21:53:30.900,21.793413,39.070171,60.24,-164,-366,15650,-14,-28,16,-76.68,0.02,-2.56,15669.227549563508,0.003498
704,1900-01-01 21:53:31.000,21.793406,39.070156,60.31,-412,-1082,15274,6,-12,16,-76.78,0.1,-2.55,16111.00965178781,0.001733
705,1900-01-01 21:53:31.100,21.793396,39.070145,60.26,68,-598,16090,0,11,13,-76.86,0.18,-2.45,15671.641905046197,0.001589
706,1900-01-01 21:53:31.200,21.793386,39.070133,60.3,-190,-806,16720,3,13,12,-76.95,0.2,-2.4,15296.431348520478,0.001665
707,1900-01-01 21:53:31.300,21.793377,39.070118,60.32,-168,-1324,14466,-11,15,15,-77.04,0.18,-2.27,16101.985219220642,0.001844
708,1900-01-01 21:53:31.400,21.793367,39.070107,60.25,-316,-512,14274,-13,-8,14,-77.13,0.08,-2.21,16736.858964572773,0.001589
709,1900-01-01 21:53:31.500,21.793358,39.070091,60.31,302,-572,17636,-1,-4,10,-77.21,0.06,-2.18,14478.279041377811,0.001931
710,1900-01-01 21:53:31.600,21.793348,39.07008,60.42,54,-732,17982,13,6,11,-77.28,0.14,-2.16,15878.587846530938,0.001589
711,1900-01-01 21:53:31.700,21.793339,39.070068,60.33,-680,568,12124,-27,-20,11,-77.37,0.01,-2.01,17504.186127895235,0.001593
712,1900-01-01 21:53:31.900,21.79332,39.070042,60.37,-272,202,15868,-17,-2,4,-77.4,0.14,-2.04,15868.205317552454,0.003416
713,1900-01-01 21:53:32.000,21.79331,39.07003,60.37,212,-60,17504,-25,22,2,-77.41,0.23,-2.08,14147.715716680203,0.001665
714,1900-01-01 21:53:32.100,21.793301,39.070015,60.4,490,-648,13918,-22,28,5,-77.43,0.18,-2.19,15869.529545641863,0.001844
715,1900-01-01 21:53:32.200,21.793291,39.070004,60.41,1206,-1390,14146,-3,3,1,-77.45,-0.04,-2.14,15804.712841428027,0.001589
716,1900-01-01 21:53:32.300,21.793282,39.069992,60.22,-192,26,18098,17,-26,-4,-77.45,0.33,-2.09,15332.902269303095,0.001593
717,1900-01-01 21:53:32.400,21.793272,39.069977,60.12,-1282,-910,15790,7,-4,6,-77.45,0.5,-1.93,15589.736752107137,0.001907
718,1900-01-01 21:53:32.500,21.793262,39.069965,60.16,-1394,-48,15318,6,-11,1,-77.47,0.4,-1.74,15791.240229950274,0.001665
719,1900-01-01 21:53:32.700,21.793243,39.069939,60.31,-12,-452,15582,-6,-6,1,-77.47,0.3,-1.56,15791.216545915644,0.003416
720,1900-01-01 21:53:32.800,21.793234,39.069927,60.28,292,110,18256,13,13,-1,-77.48,0.37,-1.52,15583.232783989335,0.001593
721,1900-01-01 21:53:32.900,21.793224,39.069916,60.41,-116,-158,17650,19,23,-9,-77.45,0.48,-1.39,17241.114233134704,0.001589
722,1900-01-01 21:53:33.000,21.793213,39.069904,60.45,-240,-570,13202,-20,27,-14,-77.37,0.4,-1.14,17242.394381291713,0.001741
723,1900-01-01 21:53:33.100,21.793203,39.069889,60.43,-652,600,17240,5,2,-15,-77.28,0.26,-1.02,13456.344080024113,0.001907
724,1900-01-01 21:53:33.200,21.793194,39.069878,60.43,-438,-522,11814,-1,-14,-14,-77.18,0.34,-0.85,13466.87833166989,0.001514
725,1900-01-01 21:53:33.300,21.793184,39.069866,60.43,-614,-294,13446,9,-48,-14,-77.08,0.5,-0.73,15974.51194872632,0.001665
726,1900-01-01 21:53:33.400,21.793175,39.069851,60.41,-1224,-430,15960,-1,-20,-15,-76.98,0.82,-0.51,15974.51194872632,0.001844
727,1900-01-01 21:53:33.500,21.793165,39.069839,60.35,-168,-128,16724,15,15,-5,-76.9,0.85,-0.37,16735.756809896586,0.001665
728,1900-01-01 21:53:33.600,21.793156,39.069828,60.34,-968,814,17316,-26,24,4,-76.9,0.8,-0.32,16724.861015864975,0.001514
729,1900-01-01 21:53:33.800,21.793137,39.069801,60.26,124,-24,19608,-5,57,6,-76.94,0.67,-0.52,16724.861015864975,0.003498
730,1900-01-01 21:53:33.900,21.793127,39.06979,60.21,158,274,16528,-3,6,7,-76.98,0.46,-0.66,17317.968472081244,0.001589
731,1900-01-01 21:53:34.000,21.793118,39.069778,60.18,-818,-1136,13580,-27,-39,5,-77.01,0.68,-0.87,19517.191703726232,0.001593
732,1900-01-01 21:53:34.100,21.793108,39.069763,60.15,-260,-264,20182,6,16,0,-77.03,0.86,-0.97,16532.152914850503,0.001907
733,1900-01-01 21:53:34.200,21.793098,39.069752,60.14,90,-196,19516,-4,14,4,-77.04,0.75,-1.05,16019.418840894323,0.001589
734,1900-01-01 21:53:34.300,21.793089,39.06974,60.12,-430,-998,16008,-14,16,5,-77.07,0.74,-1.18,16019.418840894323,0.001593
735,1900-01-01 21:53:34.400,21.793079,39.069725,60.13,368,-546,13360,-31,-15,5,-77.1,0.65,-1.3,16023.07960412105,0.001907
736,1900-01-01 21:53:34.500,21.79307,39.069714,60.08,-776,-724,13856,5,-29,4,-77.12,0.91,-1.42,16011.090905993882,0.001514
737,1900-01-01 21:53:34.700,21.793051,39.069691,59.99,-508,-8,16704,7,7,3,-77.13,1.01,-1.33,16011.810765806596,0.003178
738,1900-01-01 21:53:34.800,21.793041,39.069675,59.91,-412,-498,15996,0,10,4,-77.14,0.99,-1.28,16715.55694555225,0.001991
739,1900-01-01 21:53:34.900,21.793032,39.069664,59.91,-516,152,18178,25,9,1,-77.16,1.05,-1.24,16922.222785438087,0.001514
740,1900-01-01 21:53:35.000,21.793022,39.069653,59.88,-260,-358,17078,22,-13,2,-77.19,1.19,-1.25,17083.559113955147,0.001589
741,1900-01-01 21:53:35.100,21.793011,39.069637,59.9,-562,-142,16914,7,-15,3,-77.2,1.25,-1.18,17086.383584597414,0.002055
742,1900-01-01 21:53:35.200,21.793003,39.069626,59.81,-112,274,18074,15,20,0,-77.22,1.34,-1.12,16917.473333804905,0.001443
743,1900-01-01 21:53:35.300,21.792994,39.069614,59.79,-916,-672,14920,-3,-3,5,-77.23,1.4,-1.11,15771.584701608142,0.001593
744,1900-01-01 21:53:35.400,21.792984,39.069603,59.73,-312,138,15764,-2,3,5,-77.26,1.26,-1.07,15628.622588059385,0.001589
745,1900-01-01 21:53:35.500,21.792974,39.069588,59.69,-468,-336,15618,-3,11,4,-77.28,1.42,-1.12,14933.049655043675,0.001907
746,1900-01-01 21:53:35.700,21.792955,39.069565,59.62,-590,-502,14668,-12,9,4,-77.29,1.46,-1.16,15625.225502372758,0.003178
747,1900-01-01 21:53:35.800,21.792946,39.069553,59.57,-526,-82,14616,-14,-27,3,-77.31,1.46,-1.16,14953.102821822633,0.001593
748,1900-01-01 21:53:35.900,21.792936,39.069538,59.53,84,342,18794,1,14,3,-77.33,1.54,-1.19,14685.87430151845,0.001907
749,1900-01-01 21:53:36.000,21.792927,39.069527,59.42,-182,-498,14942,5,33,2,-77.36,1.51,-1.24,14951.503870848577,0.001514
750,1900-01-01 21:53:36.100,21.792917,39.069515,59.45,-738,-726,12902,-16,-30,14,-77.4,1.42,-1.36,14960.833532928571,0.001665
751,1900-01-01 21:53:36.200,21.792908,39.069504,59.39,-190,-1146,15548,-9,-10,21,-77.51,1.44,-1.56,14996.876741508546,0.001514
752,1900-01-01 21:53:36.300,21.792898,39.069489,59.31,-782,-1196,13744,-3,-29,21,-77.64,1.46,-1.65,15161.397033255214,0.001907
753,1900-01-01 21:53:36.400,21.792889,39.069477,59.18,-962,-1048,15100,19,-11,20,-77.79,1.47,-1.69,15551.89480417097,0.001593
754,1900-01-01 21:53:36.500,21.792879,39.069466,59.2,-546,-1160,15500,-11,-11,15,-77.93,1.41,-1.64,15156.511076101913,0.001589
755,1900-01-01 21:53:36.700,21.79286,39.069443,58.95,-396,-768,16306,-19,-34,15,-78.02,1.45,-1.71,15528.616808975614,0.003178
756,1900-01-01 21:53:36.800,21.79285,39.069427,58.79,-1094,34,13184,-2,-21,16,-78.12,1.49,-1.79,16301.27810939989,0.001991
757,1900-01-01 21:53:36.900,21.792841,39.069416,58.68,-322,48,17470,5,-15,8,-78.2,1.45,-1.78,16301.038249142292,0.001514
758,1900-01-01 21:53:37.000,21.792831,39.069405,58.66,0,-584,16286,-12,-9,5,-78.24,1.51,-1.8,14475.137995887984,0.001589
759,1900-01-01 21:53:37.100,21.792822,39.069393,58.65,-386,-682,14468,0,2,6,-78.29,1.53,-1.88,15720.15190766298,0.001593
760,1900-01-01 21:53:37.200,21.792812,39.069382,58.58,-466,-240,14036,-21,-21,7,-78.33,1.5,-1.83,15721.593049051995,0.001589
761,1900-01-01 21:53:37.300,21.792803,39.06937,58.48,-320,-666,15706,-7,-3,5,-78.38,1.53,-1.93,15253.091227682342,0.001593
762,1900-01-01 21:53:37.500,21.792784,39.069344,58.2,-886,-304,17358,1,14,8,-78.42,1.54,-1.95,15255.08308728602,0.003416
763,1900-01-01 21:53:37.600,21.792774,39.069332,58.0,-330,-610,15236,22,3,8,-78.47,1.58,-2.0,15724.512711050858,0.001665
764,1900-01-01 21:53:37.700,21.792765,39.069321,57.98,-458,-636,14170,7,0,10,-78.52,1.54,-1.94,16139.885749285835,0.001514
765,1900-01-01 21:53:37.800,21.792755,39.069309,57.92,-920,-232,18612,27,3,7,-78.57,1.63,-1.9,16141.78788114873,0.001665
766,1900-01-01 21:53:37.900,21.792746,39.069298,57.9,-3932,-1498,16104,-12,-47,3,-78.61,2.36,-1.86,16810.691359964945,0.001514
767,1900-01-01 21:53:38.000,21.792736,39.069286,57.91,-9000,-512,17178,10,-26,-6,-78.63,4.32,-1.88,18675.8373306259,0.001665
768,1900-01-01 21:53:38.100,21.792727,39.069275,57.83,-9388,-1140,16332,-10,-34,-7,-78.65,6.68,-1.95,18575.580636954528,0.001514
769,1900-01-01 21:53:38.200,21.792717,39.069263,57.8,-9334,-1026,14902,16,-12,-4,-78.71,9.63,-2.09,18379.777800615546,0.001665
770,1900-01-01 21:53:38.400,21.792698,39.069241,57.57,-9194,-1088,15330,14,-1,-3,-78.75,11.35,-2.07,18407.259980779323,0.003102
771,1900-01-01 21:53:38.500,21.79269,39.069229,57.33,-9568,-660,15800,10,-14,-3,-78.8,13.03,-2.01,18372.590998549986,0.001525
772,1900-01-01 21:53:38.600,21.792681,39.069218,57.11,-9746,-562,16374,15,-20,-5,-78.86,14.72,-2.01,18799.629145278373,0.001514
773,1900-01-01 21:53:38.700,21.792671,39.069206,56.85,-7500,-888,16674,25,17,-3,-78.89,15.9,-1.94,18295.023257705907,0.001665
774,1900-01-01 21:53:38.800,21.792662,39.069195,56.61,-2020,-2052,28464,43,93,-4,-78.87,15.79,-1.68,16805.312255355446,0.001514
775,1900-01-01 21:53:38.900,21.792652,39.069183,56.27,-384,384,17566,-4,67,4,-78.79,14.21,-1.59,16697.5636546174,0.001665
776,1900-01-01 21:53:39.100,21.792633,39.06916,55.37,-884,-70,10846,-28,-16,6,-78.69,12.56,-1.48,17570.210471135513,0.003178
777,1900-01-01 21:53:39.200,21.792625,39.069153,54.1,518,-22,15634,-24,-1,-3,-78.62,11.8,-1.49,16453.027563339216,0.001146
778,1900-01-01 21:53:39.300,21.792616,39.069141,52.96,-194,134,18256,-17,-8,-8,-78.53,11.04,-1.45,16457.723293335563,0.001593
779,1900-01-01 21:53:39.400,21.792608,39.06913,52.02,-976,506,16448,-5,-11,-6,-78.46,10.4,-1.41,16593.03154941857,0.001443
780,1900-01-01 21:53:39.500,21.792601,39.069122,50.92,-556,104,16588,2,-3,-13,-78.35,9.72,-1.3,16595.198100655503,0.001135
781,1900-01-01 21:53:39.600,21.792593,39.069115,49.52,-386,272,17630,-8,-2,-15,-78.21,9.13,-1.16,16599.544090124884,0.001146
782,1900-01-01 21:53:39.700,21.792585,39.069107,48.42,-470,-176,16558,-14,6,-14,-78.07,8.59,-1.06,16890.860605664828,0.001214
783,1900-01-01 21:53:39.900,21.792572,39.069088,46.4,-764,512,16884,6,8,-15,-77.89,7.85,-0.92,16888.504611125285,0.002437
784,1900-01-01 21:53:40.000,21.792566,39.06908,44.87,-30,-56,17184,7,13,-15,-77.78,7.34,-0.87,16885.010156940978,0.001062
785,1900-01-01 21:53:40.100,21.792561,39.069073,43.17,-176,-258,15916,-13,-6,-12,-77.67,6.79,-0.75,16884.119521017376,0.000912
786,1900-01-01 21:53:40.200,21.792557,39.069065,41.2,768,602,17154,6,13,-14,-77.55,6.18,-0.67,15919.156259048405,0.000938
787,1900-01-01 21:53:40.300,21.792551,39.069057,40.82,312,-320,14246,-2,-9,-12,-77.44,5.6,-0.57,15919.258776714449,0.001062
788,1900-01-01 21:53:40.400,21.792545,39.06905,40.75,486,80,15002,-7,-9,-9,-77.33,5.04,-0.48,17157.023634651785,0.000984
789,1900-01-01 21:53:40.500,21.792538,39.069042,40.74,-4,204,20160,18,3,-11,-77.25,4.65,-0.45,15329.22255041005,0.001135
790,1900-01-01 21:53:40.700,21.792526,39.069023,40.27,66,-98,17242,10,9,-6,-77.17,4.04,-0.38,15333.912481816244,0.002373
791,1900-01-01 21:53:40.800,21.792519,39.069016,40.34,542,38,15326,-12,-20,-5,-77.12,3.57,-0.34,15326.189219763666,0.001062
792,1900-01-01 21:53:40.900,21.792513,39.069008,40.19,604,236,14352,-8,8,-5,-77.08,3.24,-0.31,15116.306691781561,0.001062
793,1900-01-01 21:53:41.000,21.792507,39.069,40.25,-166,-96,14118,10,-5,-4,-77.04,2.81,-0.32,15123.716342222238,0.001062
794,1900-01-01 21:53:41.100,21.792501,39.068993,40.15,246,-216,15114,0,-3,-2,-77.0,2.34,-0.28,15126.065185632382,0.000984
795,1900-01-01 21:53:41.200,21.792496,39.068985,40.2,796,-6,18922,20,27,-5,-76.97,1.93,-0.22,17939.669339204665,0.000996
796,1900-01-01 21:53:41.300,21.79249,39.068977,40.3,1054,468,18816,12,9,-2,-76.94,1.51,-0.15,17939.669339204665,0.001062
797,1900-01-01 21:53:41.400,21.792482,39.068966,40.4,796,672,17922,16,-5,-5,-76.89,1.03,0.0,17939.668781780783,0.001443
798,1900-01-01 21:53:41.600,21.792471,39.068951,40.78,486,-284,16228,17,-6,-5,-76.86,0.78,0.09,16532.084442078078,0.001973
799,1900-01-01 21:53:41.700,21.792463,39.068943,41.01,576,-4,13776,2,-20,-4,-76.84,0.54,0.2,16240.953297143613,0.001214
800,1900-01-01 21:53:41.800,21.792458,39.068932,41.06,916,310,16510,-2,-10,-5,-76.8,0.36,0.25,16238.21960684114,0.001265
801,1900-01-01 21:53:41.900,21.792452,39.068924,41.22,394,298,15206,-2,-5,-1,-76.78,0.15,0.21,16520.045157323268,0.001062
802,1900-01-01 21:53:42.000,21.792444,39.068916,41.31,616,-816,17098,-7,6,1,-76.78,-0.33,0.04,16531.595204335244,0.001214
803,1900-01-01 21:53:42.200,21.792431,39.068897,42.34,560,-766,16576,-9,1,0,-76.79,-0.59,-0.08,16595.525300513993,0.002437
804,1900-01-01 21:53:42.300,21.792425,39.06889,42.69,1344,-578,15754,-5,-4,2,-76.8,-0.89,-0.1,16597.509331221958,0.000984
805,1900-01-01 21:53:42.400,21.792419,39.068882,42.78,546,-424,17182,19,-9,-1,-76.79,-1.03,-0.13,16604.4400086242,0.001062
806,1900-01-01 21:53:42.500,21.792412,39.068871,42.83,874,-30,15448,20,-9,-1,-76.79,-1.1,-0.1,16446.226314872358,0.001377
807,1900-01-01 21:53:42.600,21.792404,39.068863,42.96,1344,162,16878,1,-3,4,-76.8,-1.29,-0.01,16897.165442759917,0.001214
808,1900-01-01 21:53:42.700,21.792398,39.068855,43.0,146,-180,16422,0,0,-2,-76.8,-1.33,-0.02,16442.46769800689,0.001062
809,1900-01-01 21:53:42.900,21.792385,39.068836,43.14,804,880,17356,-15,-3,-6,-76.8,-1.34,-0.0,16902.230148711147,0.002437
810,1900-01-01 21:53:43.000,21.792377,39.068829,43.53,210,2020,15758,22,-21,-55,-76.62,-1.32,0.44,16893.836154053348,0.001146
811,1900-01-01 21:53:43.100,21.792372,39.068817,43.89,-58,3050,17680,19,-13,-102,-76.0,-1.2,1.41,17047.16539486844,0.001358
812,1900-01-01 21:53:43.300,21.792358,39.068798,44.64,-138,3660,16772,16,-2,-129,-74.93,-1.12,2.63,16913.378136847765,0.002504
813,1900-01-01 21:53:43.400,21.792351,39.06879,44.56,-148,3196,15824,5,15,-133,-74.08,-1.04,3.32,17047.16539486844,0.001135
814,1900-01-01 21:53:43.500,21.792345,39.068779,44.62,14,2964,16636,-6,20,-131,-73.13,-1.01,3.91,16898.54538118592,0.001317
815,1900-01-01 21:53:43.600,21.792337,39.068771,44.7,-16,2278,18356,4,-6,-118,-71.75,-0.92,4.45,16791.893401281464,0.001214
816,1900-01-01 21:53:43.800,21.792324,39.068752,44.6,-532,1766,14788,-28,-13,-97,-71.23,-0.82,4.54,17916.838783669402,0.002437
817,1900-01-01 21:53:43.900,21.792318,39.068741,44.67,-338,2118,17852,-1,-1,-82,-70.46,-0.54,4.53,17942.32158891374,0.001317
818,1900-01-01 21:53:44.000,21.792311,39.068733,44.62,-886,1450,17788,-9,30,-75,-69.87,-0.48,4.54,17850.201343402263,0.001135
819,1900-01-01 21:53:44.200,21.792297,39.068714,44.37,48,846,18680,-23,19,-57,-69.28,-0.66,4.39,17811.313932441928,0.002504
820,1900-01-01 21:53:44.300,21.792292,39.068703,44.47,142,282,17002,-20,18,-27,-69.0,-0.59,3.9,17005.091237626453,0.001265
821,1900-01-01 21:53:44.400,21.792286,39.068695,44.44,-732,-1520,16062,-26,-9,11,-68.95,-0.54,3.11,16118.593114785173,0.001062
822,1900-01-01 21:53:44.600,21.792273,39.068672,44.39,-160,-1374,15964,-32,-6,37,-69.21,-0.48,1.92,16020.939298305826,0.00278
823,1900-01-01 21:53:44.700,21.792267,39.068665,44.64,-372,-1340,14944,-19,-5,45,-69.46,-0.42,1.27,16024.293307350561,0.000984
824,1900-01-01 21:53:44.800,21.792261,39.068653,44.55,332,-778,12830,-46,5,49,-69.8,-0.52,0.66,15008.391519413397,0.001407
825,1900-01-01 21:53:44.900,21.792255,39.068645,44.58,-202,-1952,17020,-30,-20,60,-70.2,-0.37,-0.4,15060.40278345835,0.001062
826,1900-01-01 21:53:45.100,21.792242,39.068623,44.78,-360,-3250,14932,-5,1,78,-70.9,-0.13,-1.67,15059.124542947375,0.002692
827,1900-01-01 21:53:45.200,21.792236,39.068615,44.88,-48,-2508,14890,42,-12,68,-71.25,-0.17,-2.01,15746.761063787055,0.001062
828,1900-01-01 21:53:45.300,21.792229,39.068604,44.96,786,-1418,17460,39,-40,57,-71.67,-0.19,-2.18,15749.255474466087,0.001377
829,1900-01-01 21:53:45.400,21.792223,39.068592,45.18,-364,-1442,15624,17,-48,58,-72.06,0.09,-2.28,15692.458570918707,0.001407
830,1900-01-01 21:53:45.500,21.792217,39.068584,45.23,-254,-1966,16670,2,0,61,-72.45,0.17,-2.43,16735.27376531379,0.001062
831,1900-01-01 21:53:45.600,21.792212,39.068573,45.41,-732,-1416,15398,-34,15,58,-72.85,0.07,-2.65,16735.27376531379,0.001265
832,1900-01-01 21:53:45.800,21.792198,39.068554,45.57,-318,-1942,18238,25,10,55,-73.23,0.08,-3.09,16745.883076147402,0.002504
833,1900-01-01 21:53:45.900,21.792191,39.068542,45.69,152,-1336,17730,17,55,58,-73.8,-0.16,-3.41,15477.366442647794,0.001463
834,1900-01-01 21:53:46.000,21.792185,39.068535,45.73,660,-1572,14986,-3,-1,53,-74.03,-0.38,-3.51,17800.33954732325,0.000984
835,1900-01-01 21:53:46.100,21.792179,39.068523,45.74,268,-1558,14934,-6,-8,52,-74.34,-0.46,-3.6,15069.153393605096,0.001407
836,1900-01-01 21:53:46.200,21.792171,39.068512,45.75,290,-988,18778,12,2,48,-74.66,-0.47,-3.71,15069.153393605096,0.001443
837,1900-01-01 21:53:46.300,21.792166,39.068504,45.73,-402,-1920,14918,20,-8,43,-74.97,-0.55,-3.76,15521.492840574325,0.000996
838,1900-01-01 21:53:46.400,21.792158,39.068493,45.8,-426,-1354,15460,-4,-31,39,-75.24,-0.51,-3.68,16864.59225715226,0.001443
839,1900-01-01 21:53:46.500,21.792152,39.068485,45.86,708,-1246,16886,27,25,36,-75.47,-0.5,-3.63,16862.09975062418,0.001062
840,1900-01-01 21:53:46.600,21.792145,39.068474,46.05,512,148,16816,-5,-6,26,-75.68,-0.63,-3.42,16851.03225324787,0.001377
841,1900-01-01 21:53:46.700,21.792139,39.068462,46.05,6,-952,17664,19,-7,18,-75.85,-0.67,-3.32,16849.371382932954,0.001407
842,1900-01-01 21:53:46.800,21.792131,39.068455,46.11,-218,-1086,14896,-13,-10,21,-75.97,-0.7,-3.22,16317.848265013374,0.001146
843,1900-01-01 21:53:47.000,21.792118,39.068436,46.06,466,-506,16272,-1,10,20,-76.09,-0.76,-3.13,16317.848265013374,0.002437
844,1900-01-01 21:53:47.100,21.79211,39.068424,46.08,-198,-168,16310,-4,-12,19,-76.28,-0.81,-2.99,16314.477251815333,0.001525
845,1900-01-01 21:53:47.200,21.792105,39.068413,46.33,412,146,17408,5,-11,18,-76.39,-0.78,-2.94,16930.314350300763,0.001265
846,1900-01-01 21:53:47.300,21.792097,39.068405,46.35,318,-212,17656,-19,-13,13,-76.52,-0.66,-2.88,16928.485579046934,0.001214
847,1900-01-01 21:53:47.400,21.792091,39.068394,46.4,-782,-766,16926,-2,-7,14,-76.59,-0.59,-2.83,16930.314350300763,0.001317
848,1900-01-01 21:53:47.500,21.792084,39.068386,46.5,-450,-218,15264,-16,2,11,-76.66,-0.61,-2.7,16757.850697508915,0.001135
849,1900-01-01 21:53:47.600,21.792076,39.068375,46.75,928,-184,15318,-16,5,7,-76.72,-0.86,-2.62,16756.660049067057,0.001443
850,1900-01-01 21:53:47.700,21.792068,39.068367,46.71,290,-144,16754,0,-29,3,-76.75,-0.93,-2.55,15321.849757780554,0.001214
851,1900-01-01 21:53:47.800,21.792061,39.068356,46.72,204,-814,18644,7,-8,5,-76.79,-0.75,-2.51,16758.749595360627,0.001377
852,1900-01-01 21:53:47.900,21.792053,39.068344,46.8,502,36,14066,-11,1,9,-76.83,-0.72,-2.4,16757.128393612074,0.001525
853,1900-01-01 21:53:48.000,21.792046,39.068336,46.85,354,-366,16934,1,-12,4,-76.89,-0.76,-2.32,16940.573071770625,0.001135
854,1900-01-01 21:53:48.100,21.79204,39.068325,46.92,150,176,14188,0,-26,4,-76.91,-0.67,-2.22,16937.71968123218,0.001317
855,1900-01-01 21:53:48.300,21.792025,39.068306,46.88,496,-312,17766,16,18,3,-76.93,-0.64,-2.07,17420.61181474405,0.002575
856,1900-01-01 21:53:48.400,21.792017,39.068298,46.9,146,-26,19088,17,24,0,-76.94,-0.66,-1.89,17417.66057770101,0.001214
857,1900-01-01 21:53:48.500,21.792009,39.068287,46.98,926,-188,17416,2,12,-2,-76.94,-0.77,-1.76,17420.617210650144,0.001443
858,1900-01-01 21:53:48.600,21.792002,39.068275,47.12,-202,-504,17240,-7,-7,-2,-76.93,-0.71,-1.71,17242.866583024992,0.001463
859,1900-01-01 21:53:48.700,21.791994,39.068268,47.25,252,-374,17218,18,25,-3,-76.93,-0.69,-1.66,17245.89748316973,0.001146
860,1900-01-01 21:53:48.800,21.791988,39.068256,47.19,636,12,15580,7,-8,1,-76.92,-0.77,-1.54,17223.087528082764,0.001407
861,1900-01-01 21:53:48.900,21.791981,39.068249,47.23,-266,-422,17890,-9,-2,-3,-76.92,-0.76,-1.47,17219.848199098622,0.001062
862,1900-01-01 21:53:49.000,21.791973,39.068237,47.41,188,216,15876,-5,6,-3,-76.9,-0.7,-1.4,16353.817413680514,0.001525
863,1900-01-01 21:53:49.100,21.791965,39.06823,47.55,436,156,17324,-8,5,-5,-76.88,-0.72,-1.37,17328.5272311296,0.001146
864,1900-01-01 21:53:49.200,21.791958,39.068218,47.59,452,8,16348,-20,-10,-6,-76.84,-0.67,-1.4,16352.797436524432,0.001463
865,1900-01-01 21:53:49.300,21.79195,39.068207,47.73,396,-656,18628,4,12,-5,-76.82,-0.69,-1.43,17329.652275795957,0.001443
866,1900-01-01 21:53:49.400,21.791943,39.068199,47.77,172,-76,15782,-19,-6,-3,-76.79,-0.67,-1.39,16357.8346977832,0.001135
867,1900-01-01 21:53:49.600,21.791927,39.068176,47.9,474,-492,20340,22,3,-8,-76.76,-0.67,-1.41,16767.59422218942,0.002967
868,1900-01-01 21:53:49.700,21.79192,39.068169,47.93,68,-406,14710,11,-23,-2,-76.72,-0.44,-1.37,16762.791891567467,0.001062
869,1900-01-01 21:53:49.800,21.791914,39.068157,48.14,424,26,16758,21,-6,-6,-76.7,-0.4,-1.26,16762.207730487055,0.001407
870,1900-01-01 21:53:49.900,21.791906,39.06815,48.11,-316,-362,17318,29,-8,-4,-76.67,-0.36,-1.14,16594.250329556922,0.001146
871,1900-01-01 21:53:50.000,21.791899,39.068138,48.14,100,-48,15824,6,-6,-5,-76.65,-0.34,-0.99,16758.987678257898,0.001463
872,1900-01-01 21:53:50.100,21.791891,39.068127,48.26,200,-704,16590,5,11,-3,-76.63,-0.36,-0.91,16747.593857029133,0.001443
873,1900-01-01 21:53:50.200,21.791883,39.068119,48.47,-22,-152,20782,17,38,-5,-76.62,-0.41,-0.84,16747.593857029133,0.001214
874,1900-01-01 21:53:50.300,21.791876,39.068108,48.4,-570,-230,16746,-5,-6,-2,-76.6,-0.41,-0.79,16747.593857029133,0.001377
875,1900-01-01 21:53:50.400,21.791868,39.068096,48.46,-152,-636,17994,5,8,-4,-76.57,-0.36,-0.79,17994.65542876551,0.001525
876,1900-01-01 21:53:50.500,21.791861,39.068089,48.44,124,80,15572,-20,21,-5,-76.53,-0.33,-0.77,17994.742009820537,0.001062
877,1900-01-01 21:53:50.600,21.791853,39.068077,48.47,100,420,18340,4,16,-4,-76.51,-0.26,-0.84,17994.55528764187,0.001525
878,1900-01-01 21:53:50.700,21.791845,39.068066,48.52,-372,-60,18202,8,27,-5,-76.48,-0.19,-0.85,17056.585824836107,0.001443
879,1900-01-01 21:53:50.800,21.791838,39.068058,48.64,-128,-576,17056,-5,8,-5,-76.45,-0.17,-0.86,17327.740302763083,0.001135
880,1900-01-01 21:53:50.900,21.79183,39.068047,48.62,-472,-246,13490,-15,-28,-2,-76.42,0.01,-0.91,17061.829796361235,0.001443
881,1900-01-01 21:53:51.000,21.791822,39.068035,48.64,-426,-614,17322,14,14,-4,-76.4,0.15,-0.89,17064.135254972636,0.001525
882,1900-01-01 21:53:51.200,21.791807,39.068016,48.59,-28,396,16588,12,14,-5,-76.38,0.18,-0.83,16875.171584312855,0.002575
883,1900-01-01 21:53:51.300,21.7918,39.068005,48.58,-570,-310,17612,22,12,-5,-76.34,0.22,-0.76,17213.13056942287,0.001377
884,1900-01-01 21:53:51.400,21.791792,39.067997,48.58,136,-54,16868,8,-17,-4,-76.31,0.43,-0.76,16868.248753204938,0.001214
885,1900-01-01 21:53:51.500,21.791784,39.067986,48.62,-108,-784,17210,20,17,-3,-76.29,0.52,-0.72,16869.444685584644,0.001443
886,1900-01-01 21:53:51.600,21.791777,39.067974,48.64,-74,24,14730,-8,-4,-5,-76.27,0.58,-0.67,15648.093685813617,0.001463
887,1900-01-01 21:53:51.700,21.791769,39.067963,48.63,-4,-208,13972,-11,-6,-2,-76.24,0.62,-0.69,15649.557310032767,0.001443
888,1900-01-01 21:53:51.800,21.791761,39.067955,48.62,76,356,15648,-2,-10,-5,-76.21,0.62,-0.62,15648.018916143987,0.001214
889,1900-01-01 21:53:51.900,21.791754,39.067944,48.63,-448,-250,16088,6,-2,-4,-76.19,0.72,-0.6,16089.45642338485,0.001377
890,1900-01-01 21:53:52.000,21.791746,39.067932,48.63,60,320,18254,-2,35,-4,-76.15,0.83,-0.59,17916.100915098687,0.001525
891,1900-01-01 21:53:52.100,21.79174,39.067924,48.59,264,-398,19100,0,7,-4,-76.13,0.73,-0.59,17921.400614907307,0.001062
892,1900-01-01 21:53:52.200,21.791733,39.067913,48.6,-594,4,17916,-2,3,-4,-76.11,0.75,-0.58,17920.47923466334,0.001377
893,1900-01-01 21:53:52.300,21.791725,39.067902,48.57,-362,-486,14068,9,-18,8,-76.12,0.85,-0.75,17086.749720177915,0.001443
894,1900-01-01 21:53:52.400,21.791718,39.067894,48.54,-46,-1090,17076,0,-2,15,-76.2,0.84,-0.84,16616.697866904844,0.001135
895,1900-01-01 21:53:52.600,21.791702,39.067871,48.57,-498,-1220,15324,-13,-20,15,-76.33,0.92,-0.99,16483.750180101615,0.002967
896,1900-01-01 21:53:52.700,21.791695,39.067863,48.55,-26,-700,16598,-12,-1,5,-76.39,1.01,-1.06,16613.344154624618,0.001135
897,1900-01-01 21:53:52.800,21.791687,39.067852,48.48,-308,-434,16466,35,8,13,-76.46,1.11,-1.24,16479.517104575607,0.001443
898,1900-01-01 21:53:52.900,21.791679,39.067841,48.48,-140,242,19106,7,13,15,-76.56,0.95,-1.15,16477.23338427905,0.001443
899,1900-01-01 21:53:53.000,21.791672,39.067833,48.41,-444,-592,15942,7,-22,11,-76.66,1.07,-1.26,16160.435390174362,0.001135
900,1900-01-01 21:53:53.100,21.791664,39.067822,48.47,58,-1264,16154,8,26,16,-76.75,1.09,-1.24,16154.379468119474,0.001443
901,1900-01-01 21:53:53.300,21.791649,39.067802,48.3,-104,636,15712,-49,22,12,-76.87,0.93,-1.17,16164.948004865342,0.002654
902,1900-01-01 21:53:53.400,21.791641,39.067791,48.31,228,38,16492,-17,14,11,-76.95,0.75,-1.36,16155.798835093237,0.001443
903,1900-01-01 21:53:53.500,21.791634,39.067783,48.29,286,-980,16630,-34,-33,9,-76.99,0.7,-1.51,16495.23579704152,0.001135
904,1900-01-01 21:53:53.600,21.791626,39.067772,48.3,-936,-234,15402,-12,-20,7,-77.05,0.91,-1.61,16498.329127520763,0.001443
905,1900-01-01 21:53:53.700,21.791618,39.06776,48.24,498,-396,17704,-3,-2,3,-77.08,0.96,-1.68,16635.286592060864,0.001525
906,1900-01-01 21:53:53.800,21.791611,39.067753,48.26,-378,-532,14570,-5,-8,0,-77.08,0.91,-1.72,17211.70880534527,0.001062
907,1900-01-01 21:53:53.900,21.791603,39.067741,48.27,-138,-190,17564,2,9,-2,-77.08,0.92,-1.65,17567.10266378608,0.001525
908,1900-01-01 21:53:54.000,21.791595,39.06773,48.27,-270,130,17208,-20,4,-4,-77.06,0.93,-1.54,17210.196628743088,0.001443
909,1900-01-01 21:53:54.100,21.791588,39.067722,48.2,-792,-52,19070,6,13,-6,-77.02,0.84,-1.55,17208.63190378596,0.001135
910,1900-01-01 21:53:54.200,21.79158,39.067711,48.16,-30,12,16412,-29,-19,-5,-76.98,0.8,-1.52,17208.283586691614,0.001443
911,1900-01-01 21:53:54.300,21.791573,39.067703,47.96,-84,-214,16356,6,1,-8,-76.95,0.91,-1.58,16454.296581744235,0.001135
912,1900-01-01 21:53:54.500,21.791557,39.06768,47.83,28,-292,17254,7,7,-8,-76.9,1.03,-1.53,16455.605974864615,0.002967
913,1900-01-01 21:53:54.600,21.79155,39.067673,47.83,-258,238,16454,11,0,-7,-76.87,1.19,-1.46,16458.034633576393,0.001062
914,1900-01-01 21:53:54.700,21.791542,39.067661,47.82,-218,-580,17576,9,11,-4,-76.84,1.3,-1.39,16458.613064289468,0.001525
915,1900-01-01 21:53:54.800,21.791534,39.067654,47.76,-590,-458,15594,6,-21,-6,-76.78,1.37,-1.28,16461.0632706396,0.001146
916,1900-01-01 21:53:54.900,21.791527,39.067642,47.72,-520,-138,13752,-27,-30,-5,-76.73,1.48,-1.23,16084.99984457569,0.001463
917,1900-01-01 21:53:55.000,21.791521,39.067631,47.5,-462,-50,17544,11,13,-8,-76.69,1.59,-1.21,16084.6596482487,0.001317
918,1900-01-01 21:53:55.100,21.791513,39.067623,47.51,-1448,134,16076,-3,-27,-5,-76.65,1.75,-1.2,16082.889043949785,0.001214
919,1900-01-01 21:53:55.200,21.791506,39.067612,47.47,-398,-90,17270,18,38,-7,-76.61,1.89,-1.16,16238.203102560332,0.001377
920,1900-01-01 21:53:55.300,21.791498,39.067604,47.46,-422,-436,13736,-10,7,-3,-76.58,1.89,-1.11,16238.51237028811,0.001214
921,1900-01-01 21:53:55.400,21.791491,39.067593,47.42,-446,232,16232,-11,14,-7,-76.54,1.89,-1.03,16238.51237028811,0.001377
922,1900-01-01 21:53:55.500,21.791483,39.067581,47.48,-542,112,16568,17,14,-9,-76.49,1.92,-1.0,16240.085221451272,0.001525
923,1900-01-01 21:53:55.600,21.791475,39.067574,47.42,-500,384,14460,-13,12,-6,-76.44,2.03,-0.96,16241.432572282532,0.001146
924,1900-01-01 21:53:55.700,21.791468,39.067562,47.24,-632,-440,16934,2,23,-10,-76.4,2.09,-0.96,14624.289384445317,0.001463
925,1900-01-01 21:53:55.800,21.79146,39.067554,47.1,-1772,-542,12916,-12,-24,-6,-76.35,2.12,-0.98,14684.190137695712,0.001214
926,1900-01-01 21:53:55.900,21.791454,39.067543,47.01,-1592,-742,14604,-1,-27,-6,-76.32,2.29,-0.98,14978.605542573046,0.001317
927,1900-01-01 21:53:56.100,21.791439,39.067524,47.0,-1468,-388,14900,-21,-18,-6,-76.27,2.44,-0.92,14981.948738398487,0.002575
928,1900-01-01 21:53:56.200,21.791431,39.067513,46.96,-792,-38,16964,-24,13,-5,-76.22,2.42,-0.9,14960.597849016596,0.001443
929,1900-01-01 21:53:56.300,21.791424,39.067505,46.94,-1288,-750,16200,-2,-12,-5,-76.18,2.39,-0.94,15691.427723441866,0.001135
930,1900-01-01 21:53:56.400,21.791416,39.067493,46.9,-1166,268,13542,-1,-16,-5,-76.13,2.46,-0.9,16239.268086955151,0.001525
931,1900-01-01 21:53:56.500,21.791409,39.067486,46.81,-560,366,15648,-10,14,-4,-76.1,2.38,-0.89,16241.43491197745,0.001062
932,1900-01-01 21:53:56.600,21.791403,39.067474,46.77,-1128,-246,16364,-28,-32,-8,-76.04,2.44,-0.94,16376.539439087855,0.001407
933,1900-01-01 21:53:56.700,21.791395,39.067467,46.61,-582,806,18258,6,0,-11,-75.99,2.64,-1.01,16375.286867716242,0.001146
934,1900-01-01 21:53:56.800,21.791388,39.067455,46.44,-580,-182,19020,22,9,-5,-75.95,2.67,-1.09,18268.180314415556,0.001463
935,1900-01-01 21:53:56.900,21.79138,39.067448,46.27,-506,-446,16228,-2,7,-6,-75.92,2.71,-1.1,18268.180314415556,0.001146
936,1900-01-01 21:53:57.000,21.791374,39.067436,46.04,-1276,72,18348,0,36,-8,-75.88,2.78,-1.03,16244.485218067084,0.001407
937,1900-01-01 21:53:57.100,21.791367,39.067429,45.94,-632,-1216,13658,-11,-25,-3,-75.84,2.69,-1.12,15951.294492924391,0.001062
938,1900-01-01 21:53:57.200,21.791359,39.067417,45.77,-48,-686,15924,-12,-27,-3,-75.81,2.78,-1.1,13895.6734273658,0.001525
939,1900-01-01 21:53:57.300,21.791353,39.06741,45.59,-1162,-1098,13830,-16,3,1,-75.81,2.85,-1.05,13922.09567557988,0.000984
940,1900-01-01 21:53:57.500,21.791338,39.06739,45.1,-1166,-414,12858,-17,-31,1,-75.8,2.87,-1.1,15082.792712226737,0.002654
941,1900-01-01 21:53:57.600,21.791332,39.067379,44.95,-1224,-1220,16720,10,-15,-1,-75.78,3.01,-1.09,14175.887132733527,0.001317
942,1900-01-01 21:53:57.700,21.791325,39.067371,44.64,-1546,-384,15022,-30,-7,3,-75.8,3.39,-1.09,15107.018104179262,0.001135
943,1900-01-01 21:53:57.800,21.791319,39.06736,44.12,-1858,-872,14096,-5,14,0,-75.81,3.57,-1.22,16801.341970211783,0.001317
944,1900-01-01 21:53:57.900,21.791311,39.067352,44.0,-1930,-290,17556,6,-5,6,-75.83,3.79,-1.3,15112.484110827048,0.001214
945,1900-01-01 21:53:58.000,21.791306,39.067345,43.88,-1606,-44,17484,-14,17,4,-75.86,3.98,-1.34,16582.96837119338,0.000912
946,1900-01-01 21:53:58.100,21.791298,39.067333,43.54,-1594,-1142,13120,9,19,5,-75.91,4.12,-1.45,17440.235548868026,0.001525
947,1900-01-01 21:53:58.200,21.791292,39.067326,43.5,-2186,-68,16476,26,-9,1,-75.92,4.23,-1.41,16553.067268636347,0.000984
948,1900-01-01 21:53:58.300,21.791285,39.067318,43.39,-906,-34,17366,-1,20,5,-75.94,4.27,-1.38,16469.831935997405,0.001135
949,1900-01-01 21:53:58.400,21.791279,39.067307,43.26,-452,-700,16396,11,-4,1,-75.95,4.15,-1.44,16505.452311281868,0.001317
950,1900-01-01 21:53:58.500,21.791271,39.067299,43.17,-1478,-492,15210,-23,-31,2,-75.95,4.13,-1.42,16428.381417534718,0.001214
951,1900-01-01 21:53:58.700,21.79126,39.06728,42.23,-368,-388,17168,8,2,1,-75.97,4.08,-1.52,16466.20539164989,0.002312
952,1900-01-01 21:53:58.800,21.791252,39.067272,41.69,-1348,-982,15892,-33,-33,4,-75.98,4.16,-1.55,16491.678628932834,0.001214
953,1900-01-01 21:53:58.900,21.791246,39.067265,41.19,-4964,-754,16408,12,-43,-3,-76.03,5.13,-1.69,17167.231692966692,0.000984
954,1900-01-01 21:53:59.000,21.791241,39.067257,40.69,-6128,-922,16542,7,-20,-2,-76.04,6.39,-1.72,17060.843238245874,0.000996
955,1900-01-01 21:53:59.100,21.791235,39.067249,40.39,-7670,-1022,15882,-5,7,0,-76.09,7.8,-1.77,18136.048742766434,0.001062
956,1900-01-01 21:53:59.200,21.791229,39.067238,40.19,-8088,-1480,13780,3,20,0,-76.16,9.2,-1.88,17851.322976183026,0.001317
957,1900-01-01 21:53:59.300,21.791222,39.06723,40.08,-8372,-930,18694,10,16,-1,-76.2,10.6,-1.9,17932.67252809798,0.001135
958,1900-01-01 21:53:59.400,21.791216,39.067223,39.98,-8266,-1008,14556,-5,-28,-1,-76.27,12.11,-1.97,16783.433379377417,0.000984
959,1900-01-01 21:53:59.500,21.79121,39.067215,39.89,-8294,-960,16120,7,-10,1,-76.37,13.46,-2.08,16783.07409266848,0.001062
960,1900-01-01 21:53:59.600,21.791204,39.067207,39.82,-8338,-1196,14480,-9,-15,-2,-76.43,14.78,-2.16,16769.254485516045,0.001062
961,1900-01-01 21:53:59.800,21.791191,39.067192,39.65,-8042,-1002,14132,-25,13,4,-76.51,15.8,-2.26,17351.007463545164,0.002119
962,1900-01-01 21:53:59.900,21.791185,39.067181,39.51,-7498,-850,15320,12,13,-5,-76.59,16.79,-2.37,17331.479105950537,0.001317
963,1900-01-01 21:54:00.000,21.79118,39.067173,39.35,-8084,-1250,16880,9,-4,-1,-76.65,17.62,-2.37,18248.479936696098,0.000996
964,1900-01-01 21:54:00.100,21.791174,39.067165,39.13,-6608,274,16710,-10,3,4,-76.75,18.45,-2.29,17896.375722475208,0.001062
965,1900-01-01 21:54:00.200,21.791166,39.067158,38.88,-5214,-946,16610,4,14,2,-76.77,18.44,-2.35,17427.68808534282,0.001146
966,1900-01-01 21:54:00.300,21.791161,39.06715,38.52,-4254,-804,16320,-4,0,-1,-76.77,18.25,-2.37,17152.591640915376,0.000996
967,1900-01-01 21:54:00.400,21.791155,39.067142,38.08,-3376,-472,16548,14,24,3,-76.75,17.85,-2.32,16956.186481635545,0.001062
968,1900-01-01 21:54:00.500,21.791149,39.067135,37.53,-1386,-422,16988,5,12,3,-76.67,16.97,-2.18,16611.302898929993,0.000984
969,1900-01-01 21:54:00.600,21.791143,39.067127,36.9,-438,-108,17058,-1,14,2,-76.58,15.6,-2.04,16559.164954791653,0.001062
970,1900-01-01 21:54:00.800,21.791134,39.067116,35.45,-586,-162,15842,-10,2,1,-76.48,14.2,-1.93,16642.012618670855,0.001514
971,1900-01-01 21:54:00.900,21.791128,39.067108,34.12,-88,-130,15902,-15,2,2,-76.39,13.17,-1.83,15912.471963840188,0.001062
972,1900-01-01 21:54:01.000,21.791124,39.067104,32.71,-554,-444,16632,5,0,2,-76.34,11.91,-1.78,15913.78911510392,0.000607
973,1900-01-01 21:54:01.100,21.791121,39.067097,31.17,-634,-178,14900,-12,-6,1,-76.29,11.11,-1.71,15926.244252804865,0.000796
974,1900-01-01 21:54:01.200,21.791117,39.067093,29.63,-700,-428,15914,-1,-11,1,-76.25,10.37,-1.65,16643.716051411116,0.000607
975,1900-01-01 21:54:01.300,21.791115,39.067089,27.71,-246,-288,17228,-1,10,-1,-76.22,9.7,-1.61,16983.736220278504,0.000469
976,1900-01-01 21:54:01.400,21.791113,39.067085,25.65,-402,-214,17296,8,-10,1,-76.19,9.07,-1.56,17235.095938230224,0.000469
977,1900-01-01 21:54:01.500,21.791111,39.067085,23.77,-424,-412,16976,-2,5,0,-76.17,8.47,-1.5,17299.073038749793,0.000222
978,1900-01-01 21:54:01.600,21.791111,39.067081,21.07,2,-90,17480,21,22,-7,-76.13,7.89,-1.41,17399.594248142686,0.000413
979,1900-01-01 21:54:01.700,21.791111,39.067081,19.07,138,64,17396,1,1,-5,-76.06,7.36,-1.31,17483.364664732017,0.0
980,1900-01-01 21:54:01.900,21.791107,39.067078,17.42,-342,218,20666,-1,32,-3,-76.03,7.01,-1.31,17480.035812320293,0.000542
981,1900-01-01 21:54:02.000,21.791105,39.067074,16.85,-1256,26,19222,-20,110,2,-75.97,6.21,-1.28,17396.035985246755,0.000469
982,1900-01-01 21:54:02.100,21.791103,39.06707,16.47,-24,-92,16548,-12,116,-3,-75.93,5.21,-1.33,16548.037829301695,0.000469
983,1900-01-01 21:54:02.200,21.791101,39.067066,16.12,1016,-1302,14872,36,51,0,-75.87,3.77,-1.54,15826.039555112959,0.000469
