Counter,Time,Latitude,Longitude,Speed(km/h),Ax,Ay,Az,Gx,Gy,Gz,Yaw,Pitch,Roll,acceleration_magnitude,distance
1,1900-01-01 19:33:50.900,21.78776,39.069176,0.46,-122,-90,16068,-4,2,1,0.01,-0.01,0.4,0.0,0.0
2,1900-01-01 19:33:51.000,21.78776,39.069176,0.81,-52,-98,16342,-5,3,1,0.01,-0.02,0.36,0.0,0.0
3,1900-01-01 19:33:51.100,21.787758,39.069172,0.39,76,152,15986,-2,5,1,0.0,-0.02,0.33,16342.612153508386,0.000469
4,1900-01-01 19:33:51.200,21.787756,39.069172,0.42,-102,-166,16354,-2,0,0,0.01,-0.02,0.29,16342.376571355831,0.000222
5,1900-01-01 19:33:51.300,21.787754,39.069168,0.22,-122,-130,16490,0,-2,-1,0.01,-0.02,0.27,16308.436589691852,0.000469
6,1900-01-01 19:33:51.400,21.787754,39.069168,0.14,78,92,16308,2,-5,-1,0.01,-0.01,0.24,16308.18959909407,0.0
7,1900-01-01 19:33:51.500,21.787752,39.069164,0.26,308,160,16106,0,-1,0,0.01,-0.02,0.2,16109.028648556065,0.000469
8,1900-01-01 19:33:51.700,21.787752,39.069164,0.67,906,10,15672,4,9,0,0.01,-0.34,0.18,16119.356562840838,0.0
9,1900-01-01 19:33:51.800,21.787752,39.069164,0.4,654,52,16052,-3,5,0,0.01,-0.59,0.18,16128.392480343477,0.0
10,1900-01-01 19:33:51.900,21.78775,39.06916,0.52,848,-212,17014,0,-1,0,0.01,-0.76,0.18,16251.357358694688,0.000469
11,1900-01-01 19:33:52.000,21.78775,39.06916,0.32,1092,144,16226,3,1,0,0.0,-0.99,0.18,16289.234481706008,0.0
12,1900-01-01 19:33:52.100,21.78775,39.06916,0.34,1132,174,16262,6,1,2,-0.0,-1.2,0.2,16289.543885572733,0.0
13,1900-01-01 19:33:52.300,21.787752,39.06916,0.39,940,54,16502,4,-4,1,-0.02,-1.45,0.24,16263.07338727831,0.000222
14,1900-01-01 19:33:52.400,21.787752,39.06916,0.41,918,114,16096,4,-1,2,-0.02,-1.58,0.25,16289.543885572733,0.0
15,1900-01-01 19:33:52.500,21.787752,39.06916,0.56,1088,302,16118,1,4,3,-0.04,-1.71,0.27,16527.89375570886,0.0
16,1900-01-01 19:33:52.600,21.787754,39.06916,0.54,874,72,16670,7,-2,4,-0.06,-1.85,0.29,16198.421281100205,0.000222
17,1900-01-01 19:33:52.700,21.787754,39.06916,0.66,922,-98,16792,6,5,1,-0.08,-1.92,0.29,16234.65835796984,0.0
18,1900-01-01 19:33:52.800,21.787754,39.06916,0.69,1106,48,16172,2,7,5,-0.09,-2.06,0.28,16295.445498666184,0.0
19,1900-01-01 19:33:53.000,21.787754,39.06916,1.06,1148,250,16198,2,-2,8,-0.13,-2.21,0.28,16240.627204637141,0.0
20,1900-01-01 19:33:53.100,21.787756,39.06916,0.98,978,16,16266,5,-3,7,-0.21,-2.38,0.3,16240.690256266818,0.000222
21,1900-01-01 19:33:53.200,21.787756,39.06916,1.12,1090,-96,16204,-3,-11,5,-0.24,-2.44,0.3,16240.965242250844,0.0
22,1900-01-01 19:33:53.300,21.787756,39.06916,1.49,972,106,16502,22,-20,8,-0.27,-2.45,0.28,16302.824663229376,0.0
23,1900-01-01 19:33:53.400,21.787756,39.06916,1.3,1710,308,16056,0,-2,17,-0.34,-2.57,0.35,16405.157481718972,0.0
24,1900-01-01 19:33:53.500,21.787758,39.06916,1.7,1666,214,16600,-13,-8,11,-0.44,-2.76,0.46,16409.684213902474,0.000222
25,1900-01-01 19:33:53.600,21.787758,39.06916,1.83,2100,-66,16320,-9,-7,11,-0.49,-3.04,0.4,16321.846709242187,0.0
26,1900-01-01 19:33:53.700,21.78776,39.06916,1.81,2436,78,16186,0,-7,23,-0.61,-3.36,0.26,16500.987243192452,0.000222
27,1900-01-01 19:33:53.800,21.78776,39.06916,2.26,2650,-32,15732,2,-12,24,-0.76,-3.76,0.24,16401.56126714771,0.0
28,1900-01-01 19:33:53.900,21.78776,39.06916,2.27,3334,264,17620,0,20,29,-0.94,-4.33,0.3,16447.819429942683,0.0
29,1900-01-01 19:33:54.000,21.787762,39.06916,2.33,3056,46,16108,-20,33,33,-1.12,-4.85,0.29,16837.714096634376,0.000222
30,1900-01-01 19:33:54.100,21.787762,39.06916,2.45,2922,480,17210,-30,38,34,-1.35,-5.54,0.21,16837.714096634376,0.0
31,1900-01-01 19:33:54.200,21.787762,39.06916,2.59,3062,-682,16558,-4,5,34,-1.61,-6.17,0.01,16837.714096634376,0.0
32,1900-01-01 19:33:54.400,21.787762,39.069164,1.83,3018,-560,15280,9,-1,35,-1.81,-6.66,-0.12,16839.10056980479,0.000413
33,1900-01-01 19:33:54.500,21.787762,39.069164,2.12,3720,110,16884,25,20,37,-2.03,-7.09,-0.02,16971.089063463194,0.0
34,1900-01-01 19:33:54.600,21.787762,39.069164,2.05,4468,140,16360,7,17,45,-2.27,-7.61,0.14,17372.199054811685,0.0
35,1900-01-01 19:33:54.700,21.787762,39.069164,2.13,4088,742,16912,-7,-3,42,-2.52,-8.12,0.28,17465.525471625526,0.0
36,1900-01-01 19:33:54.800,21.787762,39.069164,2.79,4534,-550,18670,17,5,41,-2.92,-8.86,0.22,17282.057863576316,0.0
37,1900-01-01 19:33:54.900,21.787762,39.069164,3.1,4772,-916,16688,18,6,45,-3.17,-9.3,0.19,17187.735278389646,0.0
38,1900-01-01 19:33:55.000,21.787762,39.069164,3.24,2676,-466,14670,-7,-12,48,-3.45,-9.57,0.27,15070.984705718469,0.0
39,1900-01-01 19:33:55.100,21.78776,39.069168,3.97,2690,154,14118,-7,34,43,-3.8,-9.85,0.36,15065.819459956369,0.000469
40,1900-01-01 19:33:55.200,21.78776,39.069168,4.66,2936,-960,14772,-36,-25,35,-4.11,-10.02,0.34,15059.398261550825,0.0
41,1900-01-01 19:33:55.399,21.787758,39.069168,6.72,2924,234,15626,-24,28,29,-4.43,-10.18,0.33,15888.138594561668,0.000222
42,1900-01-01 19:33:55.499,21.787756,39.069172,6.42,3686,472,15616,12,-15,18,-4.58,-10.36,0.38,15899.189539092866,0.000469
43,1900-01-01 19:33:55.599,21.787754,39.069172,7.71,2418,-256,15624,28,-22,8,-4.63,-10.48,0.45,15896.977951799518,0.000222
44,1900-01-01 19:33:55.699,21.787754,39.069176,10.19,3456,966,16840,-11,-4,12,-4.7,-10.53,0.61,15884.982593632263,0.000413
45,1900-01-01 19:33:55.799,21.787743,39.069187,12.02,2126,200,14964,-39,-8,15,-4.94,-10.01,0.38,15892.84719614456,0.001669
46,1900-01-01 19:33:55.999,21.787739,39.069195,12.2,2904,-72,14920,-5,-10,11,-5.14,-10.08,0.06,16583.470444994316,0.000938
47,1900-01-01 19:33:56.199,21.787733,39.069199,12.37,3132,262,18782,-13,16,6,-5.29,-10.14,-0.09,16448.67532660305,0.000785
48,1900-01-01 19:33:56.500,21.787724,39.069206,13.95,2148,98,16326,28,6,21,-5.47,-10.04,-0.21,16623.864893579954,0.001234
49,1900-01-01 19:33:56.700,21.787716,39.069214,16.08,3370,-980,16190,-17,-19,2,-5.72,-10.41,-0.31,16635.94734302799,0.001214
50,1900-01-01 19:33:56.900,21.787708,39.069221,17.1,3134,-638,17302,6,7,12,-5.68,-9.73,-0.41,16460.75210918383,0.001146
51,1900-01-01 19:33:57.200,21.787697,39.069233,19.47,2904,-1310,15296,-13,-23,12,-5.93,-9.99,-0.42,16439.11445303548,0.001741
52,1900-01-01 19:33:57.400,21.787689,39.069244,21.32,1762,-408,15102,21,-6,11,-5.97,-9.68,-0.41,16430.383562169205,0.001443
53,1900-01-01 19:33:57.600,21.78768,39.069256,22.71,2896,696,16168,16,26,4,-6.1,-9.86,0.11,16426.155849741594,0.001593
54,1900-01-01 19:33:57.900,21.787663,39.069271,26.16,2578,638,16454,-23,37,0,-6.11,-9.29,0.25,16373.083521438472,0.002444
55,1900-01-01 19:33:58.200,21.787645,39.06929,29.45,2906,166,17080,16,1,1,-6.15,-9.25,-0.06,16381.013521757437,0.002803
56,1900-01-01 19:33:58.500,21.787626,39.069309,31.65,1630,-366,16092,-7,-8,1,-6.21,-8.79,-0.08,16604.23391788974,0.002883
57,1900-01-01 19:33:58.700,21.787613,39.069324,32.38,2192,536,15598,-17,10,0,-6.22,-8.82,-0.04,16650.397352615943,0.002119
58,1900-01-01 19:33:59.000,21.787594,39.069344,33.52,2020,402,16526,12,2,-9,-6.15,-8.73,-0.16,16607.5956116471,0.002954
59,1900-01-01 19:33:59.200,21.78758,39.069359,34.18,748,216,16692,25,10,-8,-6.03,-8.06,-0.06,16590.23459749741,0.002196
60,1900-01-01 19:33:59.500,21.787561,39.069378,35.45,1402,198,17612,29,-3,-16,-5.83,-7.59,0.4,16554.72210579205,0.002883
61,1900-01-01 19:33:59.700,21.787548,39.069393,36.83,888,674,13270,-9,-24,-14,-5.6,-7.11,0.69,16722.33966883821,0.002119
62,1900-01-01 19:33:59.900,21.787533,39.069408,37.63,448,1140,15962,9,-1,-20,-5.33,-6.13,0.84,16356.933942521135,0.002276
63,1900-01-01 19:34:00.200,21.787512,39.069431,39.41,156,1284,17736,16,8,-23,-5.0,-5.02,1.2,16358.24367100576,0.003331
64,1900-01-01 19:34:00.400,21.787497,39.069447,39.94,176,970,16322,5,-4,-26,-4.69,-4.11,1.47,16358.040713973052,0.002348
65,1900-01-01 19:34:00.700,21.787476,39.069469,39.96,-1846,1074,17462,-14,-8,-21,-4.33,-2.64,1.58,16905.111416373453,0.003258
66,1900-01-01 19:34:00.900,21.78746,39.069485,39.92,-2764,272,15578,-18,-14,-24,-4.08,-1.0,1.5,17022.419686989273,0.002428
67,1900-01-01 19:34:01.100,21.787445,39.0695,39.76,-3610,830,16776,-7,-20,-25,-3.78,1.38,1.4,17152.938640361306,0.002276
68,1900-01-01 19:34:01.400,21.787424,39.069523,39.69,-4032,678,16792,-8,2,-30,-3.52,3.12,1.39,17172.174935051182,0.003331
69,1900-01-01 19:34:01.600,21.787409,39.069538,39.55,-3434,126,17034,9,-14,-32,-3.07,4.94,1.5,17267.046186305288,0.002276
70,1900-01-01 19:34:01.800,21.787394,39.069553,39.42,-6344,646,15764,-12,-9,-32,-2.79,6.07,1.57,17311.27470754248,0.002276
71,1900-01-01 19:34:02.000,21.787378,39.069569,39.35,-5902,1276,15526,1,1,-34,-2.45,7.68,1.49,17299.676066331416,0.002428
72,1900-01-01 19:34:02.200,21.787363,39.069584,39.29,-5640,-576,16354,3,21,-29,-2.15,9.19,1.42,17299.402186202853,0.002276
73,1900-01-01 19:34:02.400,21.787348,39.069595,39.12,-4838,80,18494,7,-10,-24,-1.87,10.49,1.44,17151.838968460495,0.002018
74,1900-01-01 19:34:02.600,21.787334,39.069611,38.16,-4616,-660,17296,16,-1,-18,-1.62,11.44,1.34,17290.63677254253,0.00227
75,1900-01-01 19:34:02.800,21.787319,39.069622,37.64,-5150,-458,16190,-23,0,10,-1.57,12.35,0.96,17712.786342075036,0.002018
76,1900-01-01 19:34:03.000,21.787306,39.069637,37.19,-3470,-2212,16590,-19,3,71,-2.03,12.8,-0.29,17124.64855113821,0.002119
77,1900-01-01 19:34:03.200,21.787291,39.069649,36.57,-3648,-2530,17088,7,-22,150,-3.76,12.67,-2.24,17129.767891013584,0.002078
78,1900-01-01 19:34:03.400,21.787277,39.06966,35.91,-3482,-2172,14840,-21,-22,202,-5.81,12.67,-3.64,17139.233471774634,0.001927
79,1900-01-01 19:34:03.600,21.787264,39.069672,34.69,-4020,-3724,17348,-1,4,267,-8.65,12.78,-5.42,16989.708061058613,0.001904
80,1900-01-01 19:34:03.800,21.787252,39.069683,32.94,-932,-3484,15746,-9,-33,369,-13.15,11.38,-7.76,16761.81708526853,0.001752
81,1900-01-01 19:34:04.100,21.787235,39.069698,30.1,-1644,-4678,16260,-19,-26,456,-18.63,9.83,-10.06,16773.4466344875,0.002444
82,1900-01-01 19:34:04.300,21.787228,39.069706,27.78,-1162,-4926,16570,17,-41,528,-26.32,8.2,-12.48,16916.036533419996,0.001135
83,1900-01-01 19:34:04.500,21.78722,39.069714,26.06,-1968,-3776,16226,-8,-35,577,-33.14,7.01,-13.48,16933.71465449917,0.001214
84,1900-01-01 19:34:04.700,21.787214,39.069721,24.18,-2170,-4366,16536,-40,-59,598,-40.46,5.95,-14.65,16861.010527248953,0.000984
85,1900-01-01 19:34:04.900,21.787209,39.069725,22.95,-188,-4434,15328,1,-50,638,-48.32,4.25,-15.47,16098.261645283319,0.000693
86,1900-01-01 19:34:05.100,21.787203,39.069733,21.8,68,-4588,15440,2,-40,669,-56.21,1.98,-15.69,16097.257778888925,0.001062
87,1900-01-01 19:34:05.300,21.787197,39.06974,20.9,-946,-3584,15466,-52,-81,664,-64.87,0.26,-15.5,16140.356129899985,0.000984
88,1900-01-01 19:34:05.500,21.787193,39.069748,19.67,-514,-5492,16460,-47,-79,681,-73.25,-0.65,-16.13,16798.05298241436,0.000938
89,1900-01-01 19:34:05.700,21.787189,39.069756,18.94,-1016,-5418,16676,-45,-69,702,-81.46,-1.3,-16.43,17292.724366044815,0.000938
90,1900-01-01 19:34:05.900,21.787188,39.069763,17.91,-68,-5432,15892,-45,-69,727,-90.37,-2.5,-16.85,17297.115828946742,0.000731
91,1900-01-01 19:34:06.100,21.787186,39.069771,16.65,-60,-5300,16414,-41,-81,731,-99.56,-3.66,-17.14,17092.269714698512,0.000855
92,1900-01-01 19:34:06.300,21.787186,39.069778,15.48,-610,-6326,15664,-11,-52,745,-108.86,-4.58,-17.34,17104.898128898636,0.000723
93,1900-01-01 19:34:06.500,21.787188,39.069786,14.65,428,-6562,16206,-46,-41,764,-118.31,-5.71,-17.41,16893.378229353653,0.000855
94,1900-01-01 19:34:06.700,21.787189,39.069794,14.16,84,-6416,15484,-50,-57,746,-128.31,-6.95,-17.64,16728.391913151725,0.000833
95,1900-01-01 19:34:06.900,21.787189,39.069798,13.62,258,-5856,14654,-35,-65,702,-136.98,-7.8,-17.45,16559.89661803479,0.000413
96,1900-01-01 19:34:07.100,21.787193,39.069805,13.37,1132,-5706,15116,-12,-60,628,-145.23,-8.59,-16.76,16508.198811499697,0.000849
97,1900-01-01 19:34:07.300,21.787195,39.069813,12.12,2388,-3600,15816,-32,-82,579,-150.76,-9.15,-15.99,16356.311686929912,0.000855
98,1900-01-01 19:34:07.500,21.787201,39.069817,10.79,456,-4452,15698,-27,-28,505,-157.06,-9.59,-15.26,16165.545706842067,0.000785
99,1900-01-01 19:34:07.700,21.787207,39.06982,10.32,1392,-3448,15922,2,-19,421,-162.12,-10.07,-14.44,16329.63747301207,0.000736
100,1900-01-01 19:34:07.800,21.78721,39.06982,10.16,2368,-1266,14292,39,-8,288,-166.05,-10.49,-12.54,16060.468361788207,0.000334
101,1900-01-01 19:34:08.000,21.787216,39.069824,10.1,2150,228,17462,47,-17,144,-168.38,-10.23,-9.53,16062.255258835852,0.000785
102,1900-01-01 19:34:08.200,21.787226,39.069824,10.73,1564,-1408,16150,-15,13,89,-169.59,-9.84,-8.04,16288.292114276439,0.001112
103,1900-01-01 19:34:08.400,21.787237,39.069824,11.88,1698,-672,14894,-1,-7,92,-170.78,-9.6,-7.46,16303.583164445783,0.001223
104,1900-01-01 19:34:08.700,21.787249,39.06982,12.21,1472,-1368,17746,22,6,100,-172.05,-9.18,-6.74,16303.583164445783,0.001397
105,1900-01-01 19:34:08.900,21.78726,39.069817,13.54,2152,-968,16186,-14,-10,73,-173.18,-8.92,-5.78,17587.021123544488,0.001262
106,1900-01-01 19:34:09.100,21.787271,39.069813,14.79,2770,-584,17428,-6,-11,69,-174.01,-8.79,-5.38,17587.021123544488,0.001291
107,1900-01-01 19:34:09.300,21.787285,39.069805,16.64,2532,-984,17852,-8,2,71,-174.86,-8.55,-5.01,17569.0255848183,0.001762
108,1900-01-01 19:34:09.500,21.7873,39.069798,19.2,1022,100,16340,7,-25,52,-175.62,-8.29,-4.55,17602.49005112629,0.001818
109,1900-01-01 19:34:09.700,21.787319,39.069778,25.09,1856,-850,17416,1,21,47,-176.06,-8.09,-4.18,16788.57146990178,0.002954
110,1900-01-01 19:34:09.900,21.787334,39.069771,26.39,2410,-1032,15752,3,33,51,-176.54,-8.16,-3.84,16433.748811515892,0.001818
111,1900-01-01 19:34:10.100,21.787348,39.069759,27.56,1750,102,16664,12,-27,35,-177.0,-8.07,-3.35,16774.724915777308,0.00199
112,1900-01-01 19:34:10.200,21.787355,39.069752,28.22,1670,896,14546,8,5,14,-177.19,-7.71,-2.62,16755.948197580463,0.001062
113,1900-01-01 19:34:10.400,21.787369,39.069744,29.63,1400,-800,19104,10,-22,10,-177.26,-7.67,-2.21,16865.348499215783,0.001762
114,1900-01-01 19:34:10.600,21.787384,39.069729,31.87,1994,484,16774,-51,34,10,-177.4,-7.5,-1.83,16860.35515640166,0.002276
115,1900-01-01 19:34:10.800,21.787399,39.069717,32.93,1810,-340,18724,27,26,5,-177.51,-7.51,-1.87,16849.44545081529,0.002078
116,1900-01-01 19:34:10.900,21.787407,39.06971,33.45,1556,-730,15698,13,-11,18,-177.63,-7.54,-1.5,15794.509552372938,0.001146
117,1900-01-01 19:34:11.100,21.787422,39.069698,33.97,412,396,15714,54,-20,13,-177.74,-7.13,-1.29,15752.155535037102,0.002078
118,1900-01-01 19:34:11.200,21.78743,39.069691,34.1,1260,-1378,15188,22,1,18,-177.87,-6.52,-0.76,15710.451171115361,0.001146
119,1900-01-01 19:34:11.400,21.787445,39.069679,34.51,484,1210,14590,-11,-50,12,-177.97,-6.19,-0.36,15747.306309334304,0.002078
120,1900-01-01 19:34:11.600,21.78746,39.069668,35.52,214,1348,15850,-17,-26,2,-178.03,-5.95,-0.14,15266.844729674825,0.002018
121,1900-01-01 19:34:11.800,21.787476,39.069653,36.18,2148,902,15818,-42,-4,0,-178.09,-5.9,-0.03,15893.245231858722,0.002359
122,1900-01-01 19:34:11.900,21.787485,39.069649,36.88,1578,-64,14760,-26,33,-4,-178.01,-5.59,-0.25,15929.265017570648,0.001083
123,1900-01-01 19:34:12.100,21.7875,39.069633,37.39,1254,170,16738,-25,-16,4,-178.05,-5.62,-0.25,16813.079075529266,0.002348
124,1900-01-01 19:34:12.300,21.787516,39.069622,38.06,1624,-452,17624,31,32,-3,-178.03,-5.49,-0.22,17567.13397227903,0.002111
125,1900-01-01 19:34:12.400,21.787525,39.069614,38.24,1576,522,17496,-12,17,-11,-178.02,-5.75,0.09,17567.660402000034,0.001298
126,1900-01-01 19:34:12.600,21.78754,39.069599,38.9,1840,-458,17536,4,-19,-5,-177.94,-5.6,0.03,17572.65193418455,0.002276
127,1900-01-01 19:34:12.800,21.787556,39.069584,39.29,848,448,15798,2,1,4,-177.95,-5.3,0.02,16304.42811017915,0.002359
128,1900-01-01 19:34:12.900,21.787565,39.069576,39.5,1180,-646,16234,23,21,6,-177.93,-5.21,0.26,16304.42811017915,0.001298
129,1900-01-01 19:34:13.100,21.787582,39.069565,40.3,1446,694,15786,-1,31,0,-177.93,-5.24,0.59,16304.42811017915,0.002205
130,1900-01-01 19:34:13.300,21.787598,39.06955,40.47,1702,1592,19072,-17,3,-8,-177.89,-5.21,0.85,16323.40295404117,0.002359
131,1900-01-01 19:34:13.400,21.787607,39.069542,40.7,2350,118,18398,-9,0,-2,-177.86,-5.06,0.59,18479.5353837698,0.001298
132,1900-01-01 19:34:13.600,21.787624,39.069527,41.46,1730,-1278,16130,-11,-29,-1,-177.87,-5.02,0.38,18493.369406357513,0.002444
133,1900-01-01 19:34:13.800,21.787642,39.069511,41.81,1872,-168,19216,-14,-36,-6,-177.85,-4.69,0.42,18493.117963177545,0.002595
134,1900-01-01 19:34:14.000,21.787659,39.069496,42.17,2454,632,17824,-31,64,0,-177.77,-4.77,0.48,17919.470193060955,0.002444
135,1900-01-01 19:34:14.200,21.787676,39.069481,43.26,1844,68,18956,-2,-40,-4,-177.77,-5.05,0.46,17922.164601409062,0.002444
136,1900-01-01 19:34:14.300,21.787685,39.069469,43.43,1144,-110,14634,0,1,-2,-177.73,-4.89,0.47,17304.663995582232,0.001593
137,1900-01-01 19:34:14.500,21.787703,39.069454,43.83,2352,636,15202,-24,-6,-2,-177.69,-4.72,0.54,17086.028912535527,0.002531
138,1900-01-01 19:34:14.700,21.787722,39.069439,43.98,1356,-98,17206,6,-14,0,-177.7,-4.54,0.48,17086.174645016363,0.00262
139,1900-01-01 19:34:14.900,21.787739,39.069424,44.26,1276,736,17032,1,20,4,-177.73,-4.38,0.36,17111.164074954107,0.002444
140,1900-01-01 19:34:15.000,21.787748,39.069416,44.29,1780,-170,17260,6,24,3,-177.76,-4.51,0.29,17086.174645016363,0.001298
141,1900-01-01 19:34:15.200,21.787766,39.069401,44.72,1624,256,16030,-18,-16,2,-177.78,-4.52,0.24,16096.50906252657,0.002531
142,1900-01-01 19:34:15.300,21.787775,39.069393,44.94,1006,-844,14690,-23,19,1,-177.8,-4.46,0.17,16095.713839404576,0.001298
143,1900-01-01 19:34:15.500,21.787794,39.069378,45.34,1448,200,15712,-11,4,4,-177.83,-4.49,0.06,15770.135953757659,0.00262
144,1900-01-01 19:34:15.700,21.787813,39.069363,45.73,1338,-120,18314,-8,-45,3,-177.87,-4.33,0.02,15495.938177470895,0.00262
145,1900-01-01 19:34:15.800,21.787823,39.069351,45.87,1310,324,15440,23,40,10,-177.94,-4.08,0.02,15496.764178369625,0.001665
146,1900-01-01 19:34:16.000,21.787842,39.069336,46.89,982,-420,13866,4,13,6,-178.01,-4.14,0.12,15493.582284287904,0.00262
147,1900-01-01 19:34:16.200,21.787861,39.069321,47.63,1246,446,15146,-3,-20,4,-178.06,-3.87,0.22,15496.385384985751,0.00262
148,1900-01-01 19:34:16.300,21.78787,39.069313,47.72,816,438,17478,13,1,1,-178.07,-3.64,0.28,17361.3292117856,0.001298
149,1900-01-01 19:34:16.500,21.787889,39.069294,47.93,1786,838,17328,-19,27,4,-178.09,-3.66,0.35,17502.519361509076,0.002883
150,1900-01-01 19:34:16.600,21.787901,39.069286,48.08,514,282,17786,15,-15,1,-178.11,-3.86,0.24,17499.310386412373,0.001569
151,1900-01-01 19:34:16.800,21.78792,39.069271,48.27,168,-678,19016,0,-15,-1,-178.1,-3.8,0.26,17365.198415221173,0.00262
152,1900-01-01 19:34:17.000,21.787939,39.069252,48.51,1136,-36,15574,23,18,1,-178.1,-3.8,0.2,16445.530578245263,0.002883
153,1900-01-01 19:34:17.100,21.787949,39.069244,48.58,1342,6,15358,22,-5,2,-178.12,-3.75,0.28,15590.217188993873,0.001385
154,1900-01-01 19:34:17.300,21.787968,39.069225,48.86,666,-150,16432,-4,-19,-1,-178.12,-3.59,0.43,15612.098257441246,0.002883
155,1900-01-01 19:34:17.400,21.787979,39.069218,49.04,710,696,14872,-25,11,0,-178.11,-3.42,0.5,16447.33291448799,0.001421
156,1900-01-01 19:34:17.600,21.787998,39.069199,49.78,1090,22,16878,2,7,-3,-178.11,-3.43,0.45,16447.346533711752,0.002883
157,1900-01-01 19:34:17.700,21.788008,39.069191,50.1,286,-172,16448,9,34,3,-178.12,-3.5,0.42,16491.181279702192,0.001385
158,1900-01-01 19:34:17.900,21.788029,39.069172,50.17,1696,618,16094,11,21,0,-178.11,-3.43,0.48,16527.199036739406,0.00305
159,1900-01-01 19:34:18.000,21.788038,39.069164,50.25,1454,484,16456,-8,11,-1,-178.09,-3.47,0.69,16531.665856773176,0.001298
160,1900-01-01 19:34:18.200,21.788057,39.069145,50.48,2248,674,17080,-19,2,-3,-178.08,-3.52,0.7,16531.665856773176,0.002883
161,1900-01-01 19:34:18.400,21.788078,39.06913,50.7,926,1106,16532,-20,4,1,-178.06,-3.33,0.69,16527.199036739406,0.002802
162,1900-01-01 19:34:18.500,21.788088,39.069118,50.96,1374,244,15920,14,-6,-2,-178.06,-3.37,0.52,16590.79371217664,0.001665
163,1900-01-01 19:34:18.700,21.788109,39.069103,51.24,1598,140,16376,-3,-19,-1,-178.04,-3.32,0.48,16579.624844971615,0.002802
164,1900-01-01 19:34:18.800,21.78812,39.069092,51.58,584,-982,16554,-26,-15,9,-178.07,-3.1,0.26,16454.3787485277,0.001669
165,1900-01-01 19:34:19.000,21.788141,39.069073,52.38,1770,-664,16522,-24,35,24,-178.26,-3.05,-0.28,16467.175714129,0.00305
166,1900-01-01 19:34:19.200,21.78816,39.069054,52.56,1644,1354,13234,6,-18,18,-178.47,-3.49,-0.41,16527.672794437818,0.002883
167,1900-01-01 19:34:19.300,21.788172,39.069046,52.74,370,-866,15188,6,-34,14,-178.6,-3.06,-0.49,16435.121052185772,0.001569
168,1900-01-01 19:34:19.500,21.788193,39.069027,53.05,458,-258,16504,3,13,11,-178.74,-3.09,-0.36,15208.665030172766,0.00305
169,1900-01-01 19:34:19.700,21.788214,39.069008,53.27,748,-262,16416,-1,-4,3,-178.81,-3.12,-0.24,16424.477586821446,0.00305
170,1900-01-01 19:34:19.800,21.788225,39.069,53.4,1546,-662,13508,-2,24,2,-178.86,-3.24,-0.16,16522.956273016036,0.001476
171,1900-01-01 19:34:20.000,21.788246,39.068981,53.91,312,-34,16988,15,20,7,-178.89,-3.04,-0.07,16644.695251040193,0.00305
172,1900-01-01 19:34:20.200,21.788267,39.068962,54.13,1348,-250,17118,-9,10,3,-178.95,-3.13,0.09,16680.59159622344,0.00305
173,1900-01-01 19:34:20.300,21.788279,39.068951,54.35,8,100,16626,-14,-18,5,-179.02,-3.13,0.03,16990.898857918022,0.001752
174,1900-01-01 19:34:20.500,21.7883,39.068932,54.69,1648,142,16136,-19,10,9,-179.11,-3.01,-0.17,16674.745815154125,0.00305
175,1900-01-01 19:34:20.600,21.788311,39.068924,54.77,220,-224,17316,-21,-6,6,-179.2,-2.89,-0.31,16173.32050013231,0.001476
176,1900-01-01 19:34:20.800,21.788334,39.068905,55.08,1274,-14,16084,-24,1,7,-179.27,-2.82,-0.32,16121.44087853192,0.003223
177,1900-01-01 19:34:20.900,21.788345,39.068893,55.29,1098,-124,15648,-21,0,5,-179.34,-2.82,-0.37,16120.294910453717,0.001741
178,1900-01-01 19:34:21.100,21.788366,39.068874,55.59,1074,1882,15490,-10,-49,5,-179.38,-2.63,-0.47,16121.911673247685,0.00305
179,1900-01-01 19:34:21.200,21.788378,39.068863,55.69,842,-1028,16790,-6,30,4,-179.43,-2.33,-0.79,16611.2199431589,0.001752
180,1900-01-01 19:34:21.400,21.788401,39.068844,56.07,1892,-1284,16582,-4,13,9,-179.51,-2.63,-0.97,16610.796127820002,0.003223
181,1900-01-01 19:34:21.500,21.788412,39.068832,56.42,1034,116,16576,22,-41,3,-179.56,-2.52,-0.93,16634.88731551855,0.001741
182,1900-01-01 19:34:21.700,21.788433,39.068813,56.76,1398,-36,12322,-26,73,8,-179.61,-2.43,-0.54,15995.251045232144,0.00305
183,1900-01-01 19:34:21.800,21.788445,39.068806,57.14,2074,962,15934,13,-46,8,-179.68,-2.54,-0.53,15967.554853514674,0.001518
184,1900-01-01 19:34:22.000,21.788467,39.068783,57.52,814,-620,15904,9,36,10,-179.76,-2.24,-0.44,15927.038896166481,0.003409
185,1900-01-01 19:34:22.100,21.788479,39.068771,57.71,60,-540,16566,14,2,8,-179.85,-2.53,-0.37,15906.337479130763,0.001821
186,1900-01-01 19:34:22.300,21.788502,39.068752,57.7,-254,-266,14956,-8,3,8,-179.94,-2.51,-0.37,15906.337479130763,0.003223
187,1900-01-01 19:34:22.400,21.788513,39.068741,57.84,56,400,14120,-36,-17,10,179.98,-2.29,-0.41,16206.279893917666,0.001669
188,1900-01-01 19:34:22.600,21.788534,39.068722,58.02,694,50,16734,-30,16,11,179.86,-2.24,-0.59,16204.886670384338,0.00305
189,1900-01-01 19:34:22.700,21.788546,39.06871,58.17,-78,-1372,16204,-1,-12,8,179.77,-2.33,-0.77,16387.604339866153,0.001821
190,1900-01-01 19:34:22.900,21.788568,39.068687,58.35,610,-160,16376,6,27,17,179.66,-2.21,-0.76,16679.401188292104,0.003409
191,1900-01-01 19:34:23.000,21.78858,39.06868,58.52,1324,-90,16668,-4,-29,8,179.51,-2.35,-0.66,16387.19109548674,0.001518
192,1900-01-01 19:34:23.200,21.788603,39.068657,58.62,336,428,17374,-3,-2,3,179.45,-2.09,-0.58,16678.470553381085,0.00349
193,1900-01-01 19:34:23.400,21.788624,39.068634,58.87,584,-460,15798,-6,22,2,179.39,-2.37,-0.5,16672.68376716838,0.00333
194,1900-01-01 19:34:23.600,21.788647,39.068615,59.01,296,242,17022,-4,-14,-1,179.41,-2.16,-0.46,15803.425704574309,0.003223
195,1900-01-01 19:34:23.700,21.788658,39.068604,59.0,-316,208,15682,-5,-15,-1,179.4,-2.09,-0.42,15802.14175357252,0.001669
196,1900-01-01 19:34:23.900,21.788679,39.068581,59.06,550,866,15500,-3,-4,-1,179.4,-2.17,-0.35,16473.220328763895,0.00333
197,1900-01-01 19:34:24.000,21.788691,39.068569,59.11,-26,-322,16554,5,23,-3,179.44,-1.91,-0.17,16471.60490055538,0.001821
198,1900-01-01 19:34:24.200,21.788713,39.06855,59.17,218,1232,16470,16,-10,-2,179.47,-2.04,-0.05,16494.192311234885,0.003136
199,1900-01-01 19:34:24.400,21.788736,39.068527,59.1,98,84,19558,23,6,0,179.51,-2.02,0.16,16513.941988513827,0.00349
200,1900-01-01 19:34:24.500,21.788748,39.068516,59.27,728,1944,10876,46,94,-17,179.59,-2.17,0.48,16513.941988513827,0.001752
201,1900-01-01 19:34:24.700,21.788769,39.068493,59.63,558,1184,15654,-17,31,-5,179.64,-1.69,0.58,15665.49660878965,0.00333
202,1900-01-01 19:34:24.900,21.788792,39.068474,59.7,-238,592,17988,-15,50,-6,179.73,-1.88,0.69,15698.03287039494,0.003223
203,1900-01-01 19:34:25.000,21.788803,39.068462,59.78,-254,176,13992,14,-8,-11,179.84,-2.07,0.77,17655.14021467969,0.001741
204,1900-01-01 19:34:25.200,21.788826,39.068439,59.92,2166,1034,19086,9,-42,-22,179.95,-2.02,1.12,17635.605121458124,0.00349
205,1900-01-01 19:34:25.400,21.788849,39.06842,60.3,1318,1178,17616,8,-1,-22,-179.81,-2.07,1.49,16285.232819950717,0.003223
206,1900-01-01 19:34:25.500,21.78886,39.068409,60.37,-94,826,16264,-22,-7,-25,-179.66,-2.03,1.62,16939.650291549704,0.001669
207,1900-01-01 19:34:25.700,21.788885,39.068386,60.72,-186,628,15362,0,20,-19,-179.42,-1.82,1.52,16668.865588275647,0.003656
208,1900-01-01 19:34:25.800,21.788897,39.068375,60.91,1240,784,16874,-33,-14,-19,-179.27,-1.82,1.57,16668.865588275647,0.001752
209,1900-01-01 19:34:26.000,21.788921,39.068352,61.11,118,298,16650,-14,-3,-13,-179.1,-1.7,1.49,16892.615428050212,0.003572
210,1900-01-01 19:34:26.100,21.788933,39.068344,60.98,398,1124,17736,13,-13,-15,-178.99,-1.59,1.39,16896.891311717667,0.001569
211,1900-01-01 19:34:26.300,21.788956,39.068321,61.01,-338,784,18574,21,30,-12,-178.87,-1.38,1.36,16668.865588275647,0.00349
212,1900-01-01 19:34:26.400,21.788967,39.06831,61.06,670,1202,15462,-3,44,-9,-178.78,-1.57,1.38,17297.082875444634,0.001669
213,1900-01-01 19:34:26.600,21.788992,39.068291,61.29,-184,138,15888,-15,-16,-13,-178.68,-1.5,1.38,17279.7408545383,0.003402
214,1900-01-01 19:34:26.800,21.789015,39.068268,61.6,338,-514,17276,9,27,-6,-178.59,-1.43,1.21,15892.067581029223,0.00349
215,1900-01-01 19:34:26.900,21.789028,39.068256,61.68,332,-334,17948,-15,9,-7,-178.54,-1.6,1.23,15889.219615827582,0.001904
216,1900-01-01 19:34:27.100,21.789051,39.068233,61.75,-516,700,15176,-11,-11,-7,-178.46,-1.63,1.2,15179.792488700232,0.00349
217,1900-01-01 19:34:27.200,21.789064,39.068226,61.85,-518,-70,14570,-2,-6,-10,-178.4,-1.48,1.13,15185.571046226743,0.001616
218,1900-01-01 19:34:27.400,21.789087,39.068203,62.09,1318,838,14998,6,-2,-4,-178.32,-1.2,1.14,15185.571046226743,0.00349
219,1900-01-01 19:34:27.500,21.789101,39.068192,62.35,-892,156,15994,-9,16,-6,-178.26,-0.84,1.18,16004.631079784376,0.001927
220,1900-01-01 19:34:27.600,21.789112,39.06818,62.46,562,-556,16326,-20,7,-8,-178.21,-1.09,1.05,16113.592026609089,0.001741
221,1900-01-01 19:34:27.800,21.789137,39.068161,62.53,1120,240,16592,9,-18,-12,-178.16,-1.23,0.98,16112.974275409242,0.003402
222,1900-01-01 19:34:28.000,21.78916,39.068138,62.5,-706,946,16102,22,18,-6,-178.08,-0.98,1.03,16338.5573414546,0.00349
223,1900-01-01 19:34:28.100,21.789173,39.068127,62.53,544,338,13922,3,25,-6,-178.02,-1.15,1.18,16577.518873462337,0.001838
224,1900-01-01 19:34:28.300,21.789198,39.068104,62.58,218,462,16564,6,8,-5,-177.96,-0.95,1.34,16108.197540382971,0.003656
225,1900-01-01 19:34:28.400,21.789209,39.068092,62.61,1100,390,18762,0,-7,-5,-177.9,-0.98,1.39,16508.04737090368,0.001741
226,1900-01-01 19:34:28.600,21.789234,39.068073,62.67,30,-52,15948,-31,-1,-10,-177.85,-1.02,1.31,16570.024743493897,0.003402
227,1900-01-01 19:34:28.700,21.789246,39.068062,62.74,-234,542,16502,-19,-39,-7,-177.77,-0.93,1.11,17260.432671286082,0.001752
228,1900-01-01 19:34:28.900,21.78927,39.068039,62.83,744,-648,17256,-1,-30,-11,-177.69,-0.75,1.04,17259.698490993404,0.003572
229,1900-01-01 19:34:29.000,21.789282,39.068027,62.89,-778,1286,17510,14,-7,-7,-177.62,-0.5,1.07,17259.698490993404,0.001821
230,1900-01-01 19:34:29.200,21.789307,39.068008,62.9,-486,270,19780,3,0,-8,-177.58,-0.54,1.15,17272.387327755245,0.003402
231,1900-01-01 19:34:29.300,21.789318,39.067997,62.92,382,-996,14746,-36,-5,2,-177.57,-0.69,1.01,15453.045913346663,0.001669
232,1900-01-01 19:34:29.500,21.789343,39.067974,63.0,640,-778,15448,3,14,2,-177.61,-0.61,0.71,15454.943286858092,0.003656
233,1900-01-01 19:34:29.600,21.789356,39.067963,63.01,1580,100,15418,33,3,2,-177.66,-0.54,0.69,15472.29498167612,0.001838
234,1900-01-01 19:34:29.800,21.789381,39.067944,62.99,-754,-262,18906,24,-9,3,-177.7,-0.43,0.8,15460.51241065444,0.003402
235,1900-01-01 19:34:30.000,21.789404,39.067921,62.74,-564,-890,17556,-12,-17,0,-177.74,-0.14,0.67,15438.649034160988,0.00349
236,1900-01-01 19:34:30.200,21.789429,39.067902,62.6,-930,838,13974,9,3,6,-177.78,-0.08,0.46,17120.618096318834,0.003402
237,1900-01-01 19:34:30.400,21.789454,39.067879,62.4,-2774,-1906,15260,3,8,6,-177.83,0.42,0.35,17127.776504847323,0.003656
238,1900-01-01 19:34:30.500,21.789465,39.067867,62.16,-436,292,17102,-13,-39,1,-177.84,0.78,0.36,16734.383406627207,0.001741
239,1900-01-01 19:34:30.700,21.78949,39.067848,62.03,-1018,132,18844,-11,-25,2,-177.86,1.6,0.24,17094.74609346392,0.003402
240,1900-01-01 19:34:30.900,21.789515,39.067825,61.98,-162,-750,16708,-6,17,-1,-177.87,1.84,0.05,17070.079554589076,0.003656
241,1900-01-01 19:34:31.100,21.789539,39.067806,61.75,-2782,-118,17064,30,-15,4,-177.91,2.6,-0.11,16739.399989246926,0.003312
242,1900-01-01 19:34:31.200,21.789551,39.067795,61.62,66,346,16540,-12,11,4,-177.94,2.69,0.01,16668.94957698295,0.001752
243,1900-01-01 19:34:31.400,21.789576,39.067776,61.6,-2066,-214,15360,-12,-15,3,-177.97,2.9,-0.05,15994.432781439922,0.003402
244,1900-01-01 19:34:31.600,21.789598,39.067753,61.12,-2530,232,14542,-8,24,4,-177.99,3.27,-0.08,15978.92512029517,0.003409
245,1900-01-01 19:34:31.800,21.789623,39.067734,60.66,-1932,-458,15860,-3,3,1,-178.02,3.32,-0.08,15978.92512029517,0.003402
246,1900-01-01 19:34:32.000,21.789646,39.067711,60.28,-326,380,17666,-11,18,2,-178.05,3.62,-0.08,16102.826584174592,0.00349
247,1900-01-01 19:34:32.100,21.789658,39.067703,59.93,-282,736,17802,1,-39,-4,-178.05,3.73,-0.01,16048.10817510899,0.001569
248,1900-01-01 19:34:32.300,21.78968,39.06768,59.81,-1628,372,16016,25,32,-3,-178.04,3.85,0.01,16877.044765005514,0.003409
249,1900-01-01 19:34:32.400,21.789694,39.067673,59.56,-944,-224,15606,5,-1,-1,-178.05,3.71,0.18,16037.959471204558,0.001716
250,1900-01-01 19:34:32.600,21.789717,39.067654,59.22,-752,888,16856,-6,29,0,-178.07,3.83,0.32,15850.265486735545,0.003223
251,1900-01-01 19:34:32.700,21.789728,39.067642,58.87,-714,64,14320,-11,31,0,-178.08,3.63,0.37,15850.142459927607,0.001741
252,1900-01-01 19:34:32.900,21.789751,39.067623,57.43,-1618,14,15822,-2,-22,0,-178.07,3.78,0.28,15839.990025249384,0.003223
253,1900-01-01 19:34:33.000,21.789761,39.067612,56.43,-982,-118,18380,17,19,-2,-178.05,3.84,0.28,15852.574049661462,0.001589
254,1900-01-01 19:34:33.200,21.789783,39.067593,56.0,-528,186,14910,-43,28,-1,-178.03,3.64,0.31,17213.489942484062,0.003136
255,1900-01-01 19:34:33.300,21.789795,39.067585,55.95,-1306,504,17174,-9,7,-10,-177.98,3.49,0.26,17229.45327049004,0.001569
256,1900-01-01 19:34:33.500,21.789816,39.067566,55.74,-1154,162,17190,-10,-20,-10,-177.9,3.72,0.23,17240.301041455165,0.00305
257,1900-01-01 19:34:33.600,21.789827,39.067558,55.65,-2670,-258,17894,11,-12,-11,-177.82,3.64,0.16,17276.460169838032,0.001476
258,1900-01-01 19:34:33.800,21.789848,39.067539,55.46,-1726,-188,17662,-10,-33,-10,-177.73,3.78,0.17,17276.460169838032,0.00305
259,1900-01-01 19:34:33.900,21.78986,39.067528,55.27,-1736,-30,14676,1,12,-9,-177.66,3.92,0.18,15960.719031422112,0.001752
260,1900-01-01 19:34:34.100,21.789881,39.067509,55.05,-826,818,14946,-1,18,-8,-177.6,3.85,0.3,15959.634456966738,0.00305
261,1900-01-01 19:34:34.200,21.789892,39.067501,54.65,-1838,170,15866,-4,-18,-9,-177.55,3.85,0.43,15888.354855050286,0.001476
262,1900-01-01 19:34:34.400,21.789913,39.067482,54.25,-608,-284,16528,10,5,-7,-177.5,3.88,0.46,15888.396143097641,0.00305
263,1900-01-01 19:34:34.500,21.789925,39.067474,54.04,-842,-150,15974,4,29,-6,-177.46,3.86,0.6,15996.879070618743,0.001569
264,1900-01-01 19:34:34.600,21.789934,39.067463,53.8,-652,266,14908,18,-16,-2,-177.42,3.71,0.55,15996.879070618743,0.001514
265,1900-01-01 19:34:34.800,21.789957,39.067444,53.59,-866,-352,17468,18,-3,2,-177.41,3.87,0.58,15999.257232759275,0.003223
266,1900-01-01 19:34:34.900,21.789967,39.067436,53.2,-1058,240,15928,-8,-2,-1,-177.41,3.81,0.62,17041.710008094844,0.001385
267,1900-01-01 19:34:35.100,21.789988,39.067417,52.68,-1594,944,18790,19,-9,0,-177.41,3.73,0.61,17052.544912710244,0.00305
268,1900-01-01 19:34:35.200,21.789997,39.06741,52.55,-426,-188,17018,-28,-4,0,-177.39,3.72,0.57,17005.950370385068,0.001234
269,1900-01-01 19:34:35.300,21.790009,39.067402,52.33,-1722,1044,15952,-6,-25,1,-177.36,3.92,0.46,17013.2002868361,0.001569
270,1900-01-01 19:34:35.500,21.79003,39.067383,51.96,-1498,250,16938,-2,20,-2,-177.36,3.97,0.35,16995.314883814302,0.00305
271,1900-01-01 19:34:35.600,21.790039,39.067375,51.62,-1372,556,15230,21,-34,-3,-177.35,3.86,0.36,16024.356586147227,0.001298
272,1900-01-01 19:34:35.800,21.790058,39.067356,51.27,-966,-146,17306,3,-37,-1,-177.32,4.11,0.39,16560.006038646243,0.002883
273,1900-01-01 19:34:35.900,21.79007,39.067348,50.82,-2250,264,15488,2,16,1,-177.32,4.13,0.54,15588.340386327212,0.001569
274,1900-01-01 19:34:36.100,21.790089,39.067333,49.81,-1752,366,16490,-1,21,-2,-177.33,3.98,0.54,16584.279061810314,0.00262
275,1900-01-01 19:34:36.200,21.790098,39.067326,49.08,-1746,-242,13380,-31,-9,-6,-177.29,3.96,0.44,16252.862394052316,0.001234
276,1900-01-01 19:34:36.300,21.790108,39.067318,48.44,-1688,264,17306,-26,-16,-2,-177.28,4.09,0.41,16584.911817673317,0.001385
277,1900-01-01 19:34:36.500,21.790127,39.067303,48.16,-2032,-70,16156,-10,-22,-5,-177.24,4.3,0.26,16976.057728459808,0.00262
278,1900-01-01 19:34:36.600,21.790136,39.067295,47.64,-2790,700,16854,-2,-25,-5,-177.22,4.86,0.15,16978.104605638404,0.001298
279,1900-01-01 19:34:36.800,21.790155,39.06728,47.1,-3318,-14,18226,19,14,-1,-177.22,5.44,0.08,17083.372383695205,0.00262
280,1900-01-01 19:34:36.900,21.790165,39.067272,46.69,-1980,612,16658,-5,-10,-3,-177.24,5.9,0.22,17168.29647926666,0.001385
281,1900-01-01 19:34:37.000,21.790173,39.067265,46.28,-2946,-20,17000,-16,15,0,-177.22,6.3,0.17,17194.263927252017,0.001146
282,1900-01-01 19:34:37.200,21.790192,39.067249,45.8,-2216,52,16940,-38,-11,4,-177.18,6.64,-0.04,16871.58380235833,0.002682
283,1900-01-01 19:34:37.300,21.790201,39.067242,45.28,-3424,-298,16228,-18,-22,2,-177.17,7.01,-0.27,17176.75650406677,0.001234
284,1900-01-01 19:34:37.500,21.790218,39.067226,44.52,-2676,-398,16052,8,5,4,-177.18,7.33,-0.48,16477.674350465844,0.00251
285,1900-01-01 19:34:37.600,21.790228,39.067219,43.52,-2842,18,17418,2,-43,1,-177.19,7.64,-0.5,16469.79562714729,0.001326
286,1900-01-01 19:34:37.700,21.790236,39.067215,42.9,-3554,-564,15666,-9,-5,-3,-177.18,8.12,-0.57,16455.63222729531,0.000981
287,1900-01-01 19:34:37.900,21.790253,39.0672,42.05,-2208,-66,16220,-27,8,3,-177.18,8.17,-0.66,17378.946113041493,0.002444
288,1900-01-01 19:34:38.000,21.790262,39.067192,41.95,-2774,108,17156,1,-23,5,-177.19,8.14,-0.81,16465.16237393364,0.001298
289,1900-01-01 19:34:38.200,21.790277,39.067181,41.28,-2704,-792,17416,6,-12,3,-177.2,8.43,-0.87,16449.10550759524,0.002018
290,1900-01-01 19:34:38.300,21.790287,39.067173,40.92,-3110,-1502,15154,5,18,4,-177.22,8.55,-0.89,16251.030982679222,0.001385
291,1900-01-01 19:34:38.500,21.790302,39.067162,39.89,-2674,-416,15428,-6,10,1,-177.26,8.55,-0.75,16261.830401280171,0.002018
292,1900-01-01 19:34:38.600,21.79031,39.067154,39.64,-2734,464,16014,2,-22,1,-177.28,8.62,-0.73,15904.277915076811,0.001214
293,1900-01-01 19:34:38.800,21.790325,39.067142,38.89,-2888,-724,16326,-16,-14,3,-177.27,8.79,-0.75,16242.622817759451,0.002078
294,1900-01-01 19:34:38.900,21.790333,39.067135,38.52,-2694,100,15662,-5,17,5,-177.28,8.87,-0.82,16242.622817759451,0.001146
295,1900-01-01 19:34:39.000,21.79034,39.067127,38.18,-2346,-342,16762,-21,27,-1,-177.31,8.71,-0.77,16518.936890732406,0.001135
296,1900-01-01 19:34:39.200,21.790356,39.067116,37.11,-2130,-582,14912,4,-3,1,-177.34,8.55,-0.77,16925.5128135014,0.002111
297,1900-01-01 19:34:39.400,21.790371,39.067104,35.52,-2494,-68,16846,1,-4,0,-177.36,8.66,-0.64,16926.60556638572,0.002078
298,1900-01-01 19:34:39.500,21.790377,39.067101,34.55,-2272,0,17380,-3,-16,-6,-177.32,8.8,-0.62,16629.32794793584,0.000736
299,1900-01-01 19:34:39.700,21.79039,39.067089,33.84,-2386,-204,16456,-22,-21,3,-177.32,8.8,-0.57,17014.2686002073,0.001904
300,1900-01-01 19:34:39.900,21.790403,39.067081,32.98,-3288,-564,15826,-14,25,3,-177.31,8.61,-0.62,16837.16626989233,0.001665
301,1900-01-01 19:34:40.000,21.790409,39.067074,32.23,-2300,24,17284,-1,-5,0,-177.28,8.58,-0.67,16629.352603153256,0.000984
302,1900-01-01 19:34:40.200,21.790422,39.067066,31.28,-2768,-890,16666,-20,-10,-4,-177.29,8.53,-0.63,16825.218928739087,0.001665
303,1900-01-01 19:34:40.400,21.790434,39.067055,30.31,-2050,-206,15822,0,-5,4,-177.3,8.47,-0.67,16825.218928739087,0.001752
304,1900-01-01 19:34:40.600,21.790445,39.067047,28.43,-2200,-94,17320,4,-12,2,-177.31,8.42,-0.58,16063.27724967729,0.001476
305,1900-01-01 19:34:40.800,21.790455,39.067039,26.01,-2766,-430,15096,4,-7,-5,-177.32,8.34,-0.56,15974.495923189565,0.001385
306,1900-01-01 19:34:40.900,21.790459,39.067036,25.32,-2818,-46,14962,0,-11,3,-177.32,8.43,-0.46,16721.373508178087,0.000542
307,1900-01-01 19:34:41.100,21.790468,39.067028,23.61,-2016,16,16842,-8,-18,-3,-177.34,8.46,-0.34,16782.449165720718,0.001298
308,1900-01-01 19:34:41.300,21.790476,39.06702,22.67,-2386,-312,16550,6,-2,1,-177.36,8.48,-0.36,16721.172566539703,0.001214
309,1900-01-01 19:34:41.400,21.79048,39.067017,21.96,-2898,-416,16876,19,0,-3,-177.34,8.47,-0.38,16705.159203072566,0.000542
310,1900-01-01 19:34:41.600,21.790489,39.067013,21.49,-2076,268,16526,19,6,4,-177.37,8.39,-0.27,16681.38243671669,0.001083
311,1900-01-01 19:34:41.800,21.790497,39.067005,20.78,-2250,-316,15912,9,4,-1,-177.39,8.38,-0.09,16664.987368732087,0.001214
312,1900-01-01 19:34:42.000,21.790504,39.066998,18.78,-2142,-158,15970,3,-10,5,-177.46,8.21,-0.0,16658.0393804313,0.001062
313,1900-01-01 19:34:42.100,21.790508,39.066998,17.61,-2020,674,17074,7,2,-3,-177.48,8.13,0.09,16664.89015865391,0.000445
314,1900-01-01 19:34:42.300,21.790514,39.06699,17.03,-2002,526,16734,-8,12,2,-177.47,8.04,0.18,16668.860668923957,0.001062
315,1900-01-01 19:34:42.500,21.79052,39.066986,16.07,-1640,20,16542,4,11,-1,-177.48,7.89,0.16,16667.85301111094,0.000785
316,1900-01-01 19:34:42.600,21.790524,39.066982,15.93,-2200,10,16546,17,-17,-1,-177.47,7.86,0.19,16624.27646545858,0.000607
317,1900-01-01 19:34:42.800,21.790529,39.066978,14.93,-1618,198,16540,16,-28,1,-177.51,7.64,0.3,16618.962783519313,0.000693
318,1900-01-01 19:34:43.000,21.790535,39.066975,13.39,-1330,446,15770,-5,14,4,-177.55,7.1,0.5,16594.56850900318,0.000736
319,1900-01-01 19:34:43.200,21.790541,39.066971,12.84,-920,-390,16108,2,7,2,-177.54,6.51,0.46,16213.20794907658,0.000785
320,1900-01-01 19:34:43.400,21.790546,39.066963,12.85,-40,316,16832,6,-4,2,-177.56,5.82,0.5,16112.520473222059,0.000996
321,1900-01-01 19:34:43.500,21.790548,39.066963,12.35,-214,592,16184,-1,3,0,-177.57,5.31,0.58,16188.499251011503,0.000222
322,1900-01-01 19:34:43.700,21.790554,39.066959,12.29,-138,-222,15764,13,12,0,-177.56,4.73,0.61,16836.326083798685,0.000785
323,1900-01-01 19:34:43.900,21.790558,39.066956,12.25,-376,372,16902,-4,-9,3,-177.57,4.31,0.65,16188.084753916999,0.000542
324,1900-01-01 19:34:44.000,21.790562,39.066952,12.27,-1038,294,19688,-2,155,7,-177.61,4.2,0.64,15767.345242620902,0.000607
325,1900-01-01 19:34:44.200,21.790565,39.066948,12.01,478,58,14520,31,115,8,-177.73,1.94,0.83,15378.292883151888,0.000531
326,1900-01-01 19:34:44.400,21.790571,39.066944,12.02,422,374,14452,20,-5,3,-177.8,0.87,1.14,15379.97997397916,0.000785
327,1900-01-01 19:34:44.500,21.790573,39.066944,11.92,1006,824,15368,12,-31,3,-177.8,0.61,1.29,15381.478342474107,0.000222
328,1900-01-01 19:34:44.700,21.790579,39.06694,11.71,5238,1774,17062,-26,-110,-2,-177.78,0.67,1.29,15467.403401993497,0.000785
329,1900-01-01 19:34:44.900,21.790583,39.066936,11.54,524,200,15454,-40,-333,-23,-177.55,2.9,0.99,15499.19468875722,0.000607
330,1900-01-01 19:34:45.100,21.790588,39.066933,11.59,-2110,-232,22198,13,-53,-2,-177.37,5.98,0.67,15669.38696950203,0.000636
331,1900-01-01 19:34:45.200,21.79059,39.066929,11.57,1262,622,13670,4,74,0,-177.42,4.75,1.05,15664.20084140905,0.000469
332,1900-01-01 19:34:45.400,21.790594,39.066925,11.52,1902,450,15612,-10,87,4,-177.42,2.78,1.23,17022.792837839508,0.000607
333,1900-01-01 19:34:45.600,21.7906,39.066921,11.24,1356,-76,16968,-18,204,13,-177.53,-0.64,1.03,15677.237639329194,0.000785
334,1900-01-01 19:34:45.800,21.790604,39.066917,11.29,3054,154,18572,32,-52,0,-177.49,-2.79,0.81,17076.53102945677,0.000607
335,1900-01-01 19:34:46.100,21.790611,39.06691,11.76,404,750,15008,-6,29,-1,-177.5,-2.54,1.23,17185.834864794902,0.001062
336,1900-01-01 19:34:46.300,21.790617,39.066906,12.51,2326,278,17130,0,12,-4,-177.48,-3.54,1.14,17166.011767443248,0.000785
337,1900-01-01 19:34:46.500,21.790621,39.066902,12.82,770,296,17548,22,34,2,-177.45,-3.66,1.15,17166.011767443248,0.000607
338,1900-01-01 19:34:46.700,21.790627,39.066898,13.13,1076,-340,15858,-47,-104,-1,-177.48,-4.12,1.43,17165.38295523872,0.000785
339,1900-01-01 19:34:46.900,21.790632,39.066891,13.47,2444,-866,18498,12,-57,15,-177.59,-3.83,0.61,15898.098628452397,0.000912
340,1900-01-01 19:34:47.200,21.790642,39.066887,14.03,538,236,15250,36,24,51,-177.96,-3.39,0.4,15894.911638634547,0.001186
341,1900-01-01 19:34:47.400,21.790648,39.066879,14.76,2568,-1362,15682,-55,30,96,-178.89,-4.62,-0.08,15929.636028484769,0.001062
342,1900-01-01 19:34:47.600,21.790653,39.066875,15.2,2650,-2146,15662,-19,-33,134,179.7,-4.79,-1.39,15777.195948583512,0.000693
343,1900-01-01 19:34:47.800,21.790661,39.066868,16.49,992,-2584,16972,-2,-21,186,177.55,-4.56,-2.38,15975.127041748368,0.001146
344,1900-01-01 19:34:47.900,21.790665,39.066864,17.64,898,-1418,16664,5,124,219,175.34,-4.77,-2.8,16908.536187381804,0.000607
345,1900-01-01 19:34:48.100,21.790672,39.066856,18.44,2162,-2910,14734,-32,85,251,173.0,-6.21,-3.54,16945.23708892856,0.001135
346,1900-01-01 19:34:48.300,21.79068,39.066849,19.28,1238,-3622,16788,17,-149,260,168.91,-6.46,-5.1,16993.223355208393,0.001146
347,1900-01-01 19:34:48.500,21.790688,39.066841,19.81,844,-3090,13964,-67,-5,308,165.63,-5.35,-5.71,17024.028312946382,0.001214
348,1900-01-01 19:34:48.700,21.790695,39.066833,19.87,1980,-4198,17088,-22,32,322,161.94,-5.98,-7.06,17024.028312946382,0.001135
349,1900-01-01 19:34:49.000,21.790707,39.066818,20.49,2170,-5020,16516,6,-22,328,157.84,-6.57,-8.14,17142.737821013307,0.002044
350,1900-01-01 19:34:49.200,21.790714,39.066811,21.06,2352,-3008,16382,-46,-44,319,153.61,-6.81,-8.48,17448.14374081094,0.001062
351,1900-01-01 19:34:49.400,21.79072,39.066803,21.41,2588,-4048,16912,-13,-14,311,148.43,-7.31,-9.4,17397.91815131914,0.001062
352,1900-01-01 19:34:49.600,21.790728,39.066792,21.79,1694,-5508,16796,19,-29,325,144.44,-7.76,-10.14,17683.805472804772,0.001443
353,1900-01-01 19:34:49.900,21.790737,39.066776,22.41,1674,-5092,16044,-72,3,352,140.52,-8.06,-10.75,17713.445401728033,0.001931
354,1900-01-01 19:34:50.100,21.790743,39.066765,22.75,2164,-5194,16980,-56,-37,347,136.21,-8.56,-12.08,17197.982207224195,0.001317
355,1900-01-01 19:34:50.300,21.790749,39.066753,23.12,2436,-6496,16152,-61,-90,352,132.53,-8.53,-13.28,17104.023970984137,0.001407
356,1900-01-01 19:34:50.500,21.790754,39.066742,23.26,2132,-6266,16062,15,-14,364,128.22,-8.36,-14.39,17136.68649418551,0.001265
357,1900-01-01 19:34:50.600,21.790756,39.066738,23.53,2368,-4566,17350,-25,8,341,125.36,-8.72,-14.47,17354.050593449356,0.000469
358,1900-01-01 19:34:50.800,21.790762,39.066723,23.9,2496,-5160,16158,40,16,328,121.58,-9.21,-14.8,17239.542105288063,0.001686
359,1900-01-01 19:34:51.000,21.790766,39.066711,24.6,1666,-5888,15850,-8,-40,337,118.07,-9.6,-15.12,17200.215114933882,0.001316
360,1900-01-01 19:34:51.200,21.79077,39.066696,25.31,1750,-7310,13346,-48,-63,334,114.42,-9.7,-15.75,17191.87180035961,0.001611
361,1900-01-01 19:34:51.400,21.790773,39.066681,25.91,1648,-6218,16066,-26,-23,321,110.42,-9.89,-16.43,16988.435713743627,0.001584
362,1900-01-01 19:34:51.600,21.790775,39.066666,26.47,1576,-5712,17118,12,-36,287,106.67,-9.96,-16.52,16795.359835383104,0.001565
363,1900-01-01 19:34:51.800,21.790777,39.06665,27.52,1402,-3936,14900,35,19,231,102.39,-9.69,-15.44,16623.006827887668,0.001667
364,1900-01-01 19:34:52.000,21.790777,39.066631,28.35,1772,-2202,15708,38,-32,168,99.96,-9.66,-14.06,16622.840431165787,0.001962
365,1900-01-01 19:34:52.200,21.790775,39.066612,29.44,2022,-340,16384,26,-39,95,98.08,-9.42,-12.12,16483.434229553015,0.001974
366,1900-01-01 19:34:52.500,21.79077,39.066582,31.52,1742,-358,17092,-13,18,42,96.96,-8.86,-10.28,16483.434229553015,0.003147
367,1900-01-01 19:34:52.700,21.790764,39.066559,34.07,2528,330,18464,0,42,12,96.44,-8.76,-8.64,16503.137762256,0.002467
368,1900-01-01 19:34:52.900,21.790756,39.066532,35.83,1382,-426,15680,9,-49,6,96.07,-8.46,-7.31,17181.03396190113,0.002926
369,1900-01-01 19:34:53.100,21.790751,39.066513,36.99,1950,-130,15316,-13,-18,10,95.75,-8.01,-6.11,16123.217917028845,0.002039
370,1900-01-01 19:34:53.300,21.790743,39.06649,38.16,1614,-86,18000,13,-31,11,95.46,-7.69,-5.11,16123.217917028845,0.002536
371,1900-01-01 19:34:53.500,21.790733,39.066467,39.11,1032,10,16042,-12,-7,12,95.22,-7.45,-4.35,16668.54798715233,0.002622
372,1900-01-01 19:34:53.700,21.790726,39.066444,39.95,2024,314,18416,-15,17,9,95.04,-7.28,-3.96,16666.814692675984,0.002499
373,1900-01-01 19:34:53.900,21.790716,39.066422,40.25,1596,-116,16590,-7,1,12,94.87,-7.22,-3.64,16666.68689332106,0.002529
374,1900-01-01 19:34:54.100,21.790709,39.066402,40.41,954,-136,14666,-4,-20,11,94.68,-7.06,-3.26,16666.99649006983,0.002207
375,1900-01-01 19:34:54.300,21.790697,39.06638,40.59,1670,-56,16804,4,14,11,94.51,-6.81,-2.82,16666.99649006983,0.002634
376,1900-01-01 19:34:54.500,21.790688,39.06636,40.9,1580,-206,16570,17,32,10,94.35,-6.62,-2.36,16651.844942828408,0.002295
377,1900-01-01 19:34:54.700,21.790674,39.066338,41.28,2018,96,18702,24,16,10,94.18,-6.51,-1.9,16886.83155597876,0.002754
378,1900-01-01 19:34:54.900,21.790663,39.066319,41.75,1648,-42,14898,-8,0,12,94.04,-6.21,-1.51,16727.60042564384,0.002312
379,1900-01-01 19:34:55.100,21.790649,39.066296,42.39,1768,854,17568,1,29,7,93.92,-5.83,-1.15,16735.313202925125,0.00284
380,1900-01-01 19:34:55.300,21.790634,39.066277,43.06,1378,86,16646,1,24,11,93.78,-5.64,-0.91,16076.920227456501,0.002575
381,1900-01-01 19:34:55.500,21.790619,39.066254,43.87,1724,444,15992,-8,15,9,93.65,-5.53,-0.72,16260.185730796558,0.002902
382,1900-01-01 19:34:55.700,21.790604,39.066231,44.59,476,-706,15720,-6,-21,9,93.53,-5.2,-0.71,16252.964529586594,0.002902
383,1900-01-01 19:34:55.900,21.790586,39.066212,45.22,1290,234,16200,7,26,4,93.45,-5.1,-0.56,16021.546616978025,0.002803
384,1900-01-01 19:34:56.100,21.790567,39.066189,46.18,944,300,16966,-3,-5,-2,93.43,-4.97,-0.35,16177.261696591298,0.003179
385,1900-01-01 19:34:56.300,21.790548,39.06617,48.26,542,-656,13828,-25,-15,-2,93.41,-4.78,-0.25,16252.964529586594,0.002883
386,1900-01-01 19:34:56.400,21.790535,39.066158,49.25,2840,408,16148,-1,11,-3,93.41,-4.79,-0.23,16407.64797282048,0.001904
387,1900-01-01 19:34:56.600,21.790516,39.066135,50.23,1340,112,17732,7,19,-4,93.43,-4.67,-0.16,16421.209212478843,0.003179
388,1900-01-01 19:34:56.800,21.790495,39.066113,51.2,928,124,16380,20,15,-5,93.47,-4.69,0.0,17585.87399022295,0.003258
389,1900-01-01 19:34:57.000,21.790476,39.066093,51.98,1156,960,17530,32,11,-3,93.51,-4.52,0.26,17577.58003821914,0.002954
390,1900-01-01 19:34:57.200,21.790455,39.066071,52.98,1364,634,18346,12,-12,-3,93.52,-4.49,0.48,16574.397002606158,0.003258
391,1900-01-01 19:34:57.300,21.790442,39.066059,53.83,1126,578,16526,-2,10,-3,93.55,-4.44,0.58,16574.397002606158,0.001904
392,1900-01-01 19:34:57.500,21.790421,39.066036,54.71,930,20,16180,-14,6,-5,93.58,-4.33,0.61,16568.950962568513,0.00333
393,1900-01-01 19:34:57.700,21.790398,39.066013,55.36,1086,492,15606,-2,-15,-3,93.62,-4.32,0.66,16568.950962568513,0.00349
394,1900-01-01 19:34:57.900,21.790375,39.06599,56.04,850,-76,17706,16,-3,-2,93.64,-4.15,0.74,16401.78002535091,0.00349
395,1900-01-01 19:34:58.100,21.790354,39.065968,56.34,1152,778,17064,1,-1,-1,93.67,-4.03,0.86,17109.258546179026,0.003258
396,1900-01-01 19:34:58.300,21.790333,39.065941,56.85,588,616,16368,1,-22,-6,93.7,-3.82,0.97,17096.258421069797,0.003637
397,1900-01-01 19:34:58.400,21.790321,39.065929,57.14,1658,606,18472,8,-22,-7,93.73,-3.66,1.01,16991.186656617014,0.001821
398,1900-01-01 19:34:58.600,21.7903,39.065907,57.5,296,746,16324,-9,-13,-4,93.79,-3.4,1.05,16389.76522101522,0.003258
399,1900-01-01 19:34:58.800,21.790279,39.065884,57.78,782,-90,16962,-2,-22,-7,93.83,-3.37,1.04,16335.217047838698,0.00333
400,1900-01-01 19:34:59.000,21.790258,39.065861,57.76,574,192,14926,-13,-34,-5,93.87,-3.27,1.02,14931.479364081779,0.00333
401,1900-01-01 19:34:59.100,21.790247,39.065849,57.75,166,-424,14800,-10,12,-3,93.9,-3.2,0.98,14930.470052881792,0.001741
402,1900-01-01 19:34:59.300,21.790228,39.065826,58.09,356,282,14098,-13,21,-3,93.93,-3.25,1.02,14930.985098110574,0.003179
403,1900-01-01 19:34:59.500,21.790207,39.0658,58.63,338,-82,14962,-4,-13,-5,93.98,-3.14,0.99,14965.628085716951,0.003558
404,1900-01-01 19:34:59.700,21.790188,39.065777,58.75,272,186,17682,-11,16,-4,94.03,-2.94,0.92,16194.596012250506,0.003179
405,1900-01-01 19:34:59.900,21.790171,39.06575,59.28,-14,612,17402,-7,-63,-5,94.05,-3.03,0.79,16687.812798566505,0.003368
406,1900-01-01 19:35:00.000,21.790161,39.065739,59.37,1238,-130,16190,-16,2,-4,94.08,-2.93,0.75,17414.538638735165,0.001589
407,1900-01-01 19:35:00.200,21.790144,39.065716,59.35,634,114,16684,-5,31,-1,94.11,-2.82,0.72,16696.73668714938,0.003035
408,1900-01-01 19:35:00.400,21.790125,39.065689,59.65,642,284,17596,-7,0,-4,94.16,-2.74,0.68,16696.400330610188,0.003498
409,1900-01-01 19:35:00.600,21.790106,39.065666,59.91,1062,-42,16064,-4,-5,-4,94.18,-2.84,0.67,17102.434329650267,0.003179
410,1900-01-01 19:35:00.800,21.790087,39.065639,60.29,352,-352,18434,15,13,-1,94.24,-2.66,0.69,17105.17465564149,0.003498
411,1900-01-01 19:35:01.000,21.790066,39.065613,60.68,662,1828,17090,9,-52,-13,94.31,-2.67,0.95,16719.764711263135,0.003558
412,1900-01-01 19:35:01.100,21.790056,39.065601,60.95,1106,888,16672,17,1,-29,94.49,-2.49,1.31,17210.92931831399,0.001665
413,1900-01-01 19:35:01.300,21.790037,39.065575,61.27,898,2012,16526,-8,19,-56,95.0,-2.63,2.26,17235.911464149496,0.003416
414,1900-01-01 19:35:01.500,21.790018,39.065548,61.47,980,3040,18398,8,-45,-73,95.75,-2.57,3.21,16821.537622940417,0.003498
415,1900-01-01 19:35:01.700,21.789997,39.065521,61.47,1006,2610,17824,10,1,-80,96.7,-2.51,4.15,17626.250083327424,0.003637
416,1900-01-01 19:35:01.900,21.789978,39.065495,61.48,-454,1664,15644,-6,-31,-72,97.85,-2.46,5.08,17592.07241913243,0.003416
417,1900-01-01 19:35:02.100,21.789959,39.065468,61.24,-616,1908,17488,-38,13,-68,98.65,-2.25,5.34,17340.30414958169,0.003498
418,1900-01-01 19:35:02.400,21.789932,39.065426,61.32,102,1844,13694,-6,-21,-67,99.56,-2.03,5.32,16314.774776257256,0.005274
419,1900-01-01 19:35:02.600,21.789913,39.065399,61.3,-1176,228,17236,-14,35,-29,100.34,-0.94,5.03,16278.238971092665,0.003498
420,1900-01-01 19:35:02.800,21.789896,39.065372,61.36,-3408,-980,16218,20,-35,21,100.28,0.46,3.99,16374.645400740745,0.003368
421,1900-01-01 19:35:03.100,21.789869,39.065331,60.68,-2248,758,15570,-26,73,25,99.97,1.99,3.08,16864.342619859217,0.00519
422,1900-01-01 19:35:03.300,21.789852,39.065304,60.41,-3276,-274,16652,2,-78,6,99.69,3.02,2.22,16872.320646550077,0.003368
423,1900-01-01 19:35:03.500,21.789833,39.065277,60.18,-2658,310,16738,14,17,4,99.6,4.54,1.97,16872.320646550077,0.003498
424,1900-01-01 19:35:03.800,21.789808,39.065235,59.54,-2700,564,16924,-5,-13,4,99.48,5.31,1.69,16953.63571627042,0.005151
425,1900-01-01 19:35:04.000,21.789793,39.065208,58.55,-3364,-890,14412,5,-7,14,99.34,6.01,1.29,16282.110551153988,0.003249
426,1900-01-01 19:35:04.200,21.789776,39.065182,57.78,-3172,-3618,16032,-61,8,111,98.47,6.73,-0.55,16655.4780177574,0.003283
427,1900-01-01 19:35:04.400,21.789761,39.065155,56.66,-542,-5146,14838,-47,-3,168,95.98,6.21,-4.25,16735.98709368527,0.003249
428,1900-01-01 19:35:04.700,21.789736,39.065121,54.3,-1368,-4604,17394,-3,-21,172,93.65,5.5,-6.7,16690.485433323982,0.004478
429,1900-01-01 19:35:04.900,21.789721,39.065094,53.76,-592,-4938,16178,13,20,164,91.49,5.01,-8.17,16829.089814960284,0.003249
430,1900-01-01 19:35:05.100,21.789703,39.065071,53.45,-372,-3270,15690,11,8,140,89.52,4.17,-9.05,16509.360011823595,0.003106
431,1900-01-01 19:35:05.300,21.789688,39.065048,53.2,-14,-1416,16366,8,-9,77,88.06,3.79,-8.94,15841.418370840409,0.002902
432,1900-01-01 19:35:05.500,21.789669,39.065025,52.79,510,-538,15778,8,6,33,87.49,3.16,-8.03,15795.405281283542,0.003179
433,1900-01-01 19:35:05.700,21.789652,39.065006,52.28,1364,1036,14948,39,-3,-19,87.46,2.2,-6.36,16411.793564385338,0.002724
434,1900-01-01 19:35:05.900,21.789635,39.064983,52.17,654,1252,16758,34,-27,-35,87.86,1.83,-4.54,16299.729691010216,0.003035
435,1900-01-01 19:35:06.100,21.789616,39.064964,51.97,980,1812,16526,25,-4,-45,88.44,0.89,-2.73,16646.533573089622,0.002883
436,1900-01-01 19:35:06.300,21.789598,39.064941,51.79,1526,1948,16222,9,21,-50,89.07,0.25,-1.29,16692.931438186642,0.003106
437,1900-01-01 19:35:06.500,21.789579,39.064922,51.76,1320,1502,17974,7,29,-49,89.73,-0.6,-0.21,16704.115061864246,0.002883
438,1900-01-01 19:35:06.700,21.789562,39.064899,51.68,1170,1006,16584,-15,-1,-47,90.3,-1.25,0.61,16674.2418118486,0.003035
439,1900-01-01 19:35:06.900,21.789543,39.06488,52.08,1484,410,17064,8,21,-32,90.91,-1.91,1.3,17144.519007542905,0.002883
440,1900-01-01 19:35:07.200,21.789516,39.064846,52.63,1022,1122,15236,8,-25,-28,91.22,-2.28,1.63,16655.629438721313,0.004619
441,1900-01-01 19:35:07.400,21.789497,39.064827,53.33,1662,944,18334,-9,4,-22,91.51,-2.48,1.88,17130.918130678227,0.002883
442,1900-01-01 19:35:07.600,21.78948,39.064804,53.42,1114,1010,14644,-7,8,-17,91.76,-2.81,1.95,15305.810269306228,0.003035
443,1900-01-01 19:35:07.800,21.789461,39.064781,53.74,1182,868,17644,5,15,-17,91.99,-3.05,2.03,16889.147995088442,0.003179
444,1900-01-01 19:35:08.000,21.789442,39.064758,54.85,888,-86,15236,-15,2,-13,92.25,-3.04,2.07,15449.316360279507,0.003179
445,1900-01-01 19:35:08.300,21.789415,39.064724,55.25,944,336,16830,-9,15,-11,92.42,-3.24,2.03,16317.792252630255,0.004619
446,1900-01-01 19:35:08.500,21.789396,39.064701,55.75,508,1114,15396,-39,-13,-7,92.54,-3.08,1.65,15479.145325243251,0.003179
447,1900-01-01 19:35:08.700,21.789379,39.064678,56.0,884,498,16286,-56,15,-7,92.64,-3.02,1.34,16313.434586254361,0.003035
448,1900-01-01 19:35:09.000,21.789352,39.064644,56.52,1564,-140,15450,-35,-66,-4,92.75,-3.15,0.77,16310.00748007186,0.004619
449,1900-01-01 19:35:09.200,21.789333,39.064617,57.13,430,-462,18678,31,81,-2,92.82,-2.66,0.45,16310.250764473243,0.003498
450,1900-01-01 19:35:09.400,21.789314,39.064594,57.6,878,108,16550,33,1,6,92.8,-3.43,0.68,16357.758770687384,0.003179
451,1900-01-01 19:35:09.600,21.789295,39.064571,57.81,656,-560,15160,11,-57,2,92.77,-3.17,1.05,16560.865436323067,0.003179
452,1900-01-01 19:35:09.800,21.789276,39.064545,58.16,56,500,16344,-1,-6,5,92.76,-2.74,1.12,16357.516192869869,0.003416
453,1900-01-01 19:35:10.000,21.789257,39.064522,58.37,590,110,19022,-4,-8,1,92.71,-2.86,0.99,16355.600630976534,0.003179
454,1900-01-01 19:35:10.200,21.789238,39.064495,58.79,1636,-112,15452,1,3,3,92.68,-3.1,0.78,16355.015622126442,0.003498
455,1900-01-01 19:35:10.400,21.789219,39.064472,59.09,606,960,18136,22,-14,0,92.67,-2.78,0.78,17054.563494853803,0.003179
456,1900-01-01 19:35:10.600,21.7892,39.064445,59.5,566,-80,15062,-1,-21,5,92.63,-2.73,0.83,17054.95740246806,0.003498
457,1900-01-01 19:35:10.800,21.789181,39.064419,59.99,-772,116,17044,-13,16,15,92.54,-2.17,0.49,17054.534294433255,0.003416
458,1900-01-01 19:35:10.900,21.789171,39.064407,60.45,840,-788,18532,21,101,20,92.4,-2.52,0.21,15398.45771497912,0.001665
459,1900-01-01 19:35:11.100,21.789152,39.064384,60.74,598,40,14840,8,-70,7,92.24,-3.09,0.12,17054.534294433255,0.003179
460,1900-01-01 19:35:11.300,21.789131,39.064358,60.68,-64,346,15388,-23,-5,14,92.11,-2.14,0.01,16483.788035521447,0.003558
461,1900-01-01 19:35:11.500,21.789112,39.064331,61.15,814,-1052,18376,-10,33,15,91.94,-2.22,-0.42,15969.651467705862,0.003498
462,1900-01-01 19:35:11.700,21.789091,39.064308,61.92,622,120,16472,19,-27,-2,91.86,-2.49,-0.37,15972.571740330359,0.00333
463,1900-01-01 19:35:11.900,21.78907,39.064281,62.11,398,606,15958,27,1,0,91.88,-2.34,-0.06,15970.568180249567,0.003637
464,1900-01-01 19:35:12.100,21.789049,39.064255,62.23,1024,280,15016,-7,0,-3,91.88,-2.32,0.22,15972.571740330359,0.003558
465,1900-01-01 19:35:12.300,21.789028,39.064228,62.52,592,86,14840,3,6,-5,91.92,-2.18,0.4,15797.126320948377,0.003637
466,1900-01-01 19:35:12.500,21.789007,39.064205,62.86,966,576,16398,-10,4,-8,92.01,-2.1,0.57,15413.852860333136,0.00333
467,1900-01-01 19:35:12.700,21.788986,39.064178,62.95,680,152,15780,6,-27,-8,92.1,-2.13,0.63,15795.885666843757,0.003637
468,1900-01-01 19:35:12.900,21.788965,39.064152,63.14,834,198,15390,11,32,-5,92.17,-2.1,0.74,16414.98303380177,0.003558
469,1900-01-01 19:35:13.100,21.788944,39.064125,63.21,532,878,16440,4,-11,-8,92.24,-2.14,0.86,16451.488929577165,0.003637
470,1900-01-01 19:35:13.400,21.788914,39.064087,63.61,398,308,17150,-4,17,-7,92.29,-2.04,0.95,16451.424376022886,0.00515
471,1900-01-01 19:35:13.500,21.788902,39.064072,63.63,530,674,17198,-3,-15,-6,92.39,-1.79,0.95,17161.22023633518,0.002044
472,1900-01-01 19:35:13.800,21.788872,39.064034,64.05,336,112,15340,-17,2,-3,92.46,-1.65,0.95,17157.38231782459,0.00515
473,1900-01-01 19:35:14.000,21.788849,39.064007,64.13,282,476,17378,13,-20,-4,92.51,-1.53,1.0,16603.54227265977,0.003783
474,1900-01-01 19:35:14.200,21.788828,39.06398,64.09,536,82,16596,2,-24,-7,92.57,-1.36,1.08,16601.491017375516,0.003637
475,1900-01-01 19:35:14.400,21.788807,39.063953,64.7,412,284,15098,13,3,-5,92.64,-1.28,1.14,16603.54227265977,0.003637
476,1900-01-01 19:35:14.600,21.788786,39.063927,64.73,614,-14,16610,-5,-11,-4,92.67,-1.29,1.17,16603.73271285707,0.003558
477,1900-01-01 19:35:14.800,21.788765,39.0639,64.41,146,310,15490,-17,-3,-4,92.72,-1.22,1.08,16363.652892920945,0.003637
478,1900-01-01 19:35:15.000,21.788744,39.063873,64.37,500,-242,17114,-4,-17,-7,92.77,-1.13,1.0,16500.658047484045,0.003637
479,1900-01-01 19:35:15.200,21.788723,39.063843,64.59,-186,1002,16356,7,-14,-6,92.83,-1.05,1.0,16515.05834079916,0.003879
480,1900-01-01 19:35:15.400,21.788702,39.063816,64.62,240,756,16496,8,-9,-4,92.89,-0.95,1.02,16520.23111218484,0.003637
481,1900-01-01 19:35:15.600,21.788681,39.063789,64.9,926,998,18912,12,1,-5,92.93,-0.91,1.09,16520.23111218484,0.003637
482,1900-01-01 19:35:15.800,21.78866,39.063763,64.86,478,542,16230,-3,-2,-2,92.96,-1.02,1.11,16514.86857350067,0.003558
483,1900-01-01 19:35:16.000,21.788639,39.063736,64.9,494,628,16540,21,-4,-3,93.0,-0.89,1.06,16246.559635812131,0.003637
484,1900-01-01 19:35:16.200,21.78862,39.063709,64.94,202,-200,15444,10,46,3,93.01,-0.93,1.07,16240.852440681801,0.003498
485,1900-01-01 19:35:16.400,21.788599,39.063683,65.18,696,352,15584,-18,-28,-1,93.02,-1.05,0.96,16383.452383426395,0.003558
486,1900-01-01 19:35:16.600,21.788578,39.063652,65.52,222,-10,16376,-6,13,-1,93.05,-0.8,0.75,15599.563199012977,0.003962
487,1900-01-01 19:35:16.800,21.788557,39.063625,65.26,4148,-30,16674,-13,70,-3,93.08,-0.57,0.61,15987.185493388135,0.003637
488,1900-01-01 19:35:17.000,21.788536,39.063599,65.54,1808,-1458,13496,-15,99,6,93.07,-0.63,0.43,16382.943935691168,0.003558
489,1900-01-01 19:35:17.200,21.788515,39.063568,65.64,476,-656,15972,1,-33,-2,93.06,-0.66,0.35,15979.119500147684,0.003962
490,1900-01-01 19:35:17.400,21.788494,39.063541,65.67,-798,148,16868,13,21,2,93.05,-0.51,0.5,15972.730887359243,0.003637
491,1900-01-01 19:35:17.600,21.788473,39.063515,65.74,-652,616,15578,2,-19,2,93.02,-0.64,0.56,16871.44771500063,0.003558
492,1900-01-01 19:35:17.800,21.788454,39.063484,65.63,-38,232,16966,10,-7,-2,93.05,-0.41,0.44,16882.190379213236,0.003835
493,1900-01-01 19:35:18.000,21.788433,39.063457,65.82,-250,330,17964,28,5,-2,93.06,-0.13,0.51,16624.73217829388,0.003637
494,1900-01-01 19:35:18.300,21.788401,39.063416,65.52,-1972,-600,15966,-25,-41,-5,93.1,0.47,0.61,17081.796275567744,0.00553
495,1900-01-01 19:35:18.500,21.788382,39.063389,65.47,-3982,254,16610,-11,-26,-5,93.15,2.3,0.49,17708.05850453403,0.003498
496,1900-01-01 19:35:18.700,21.788361,39.063362,65.42,-5288,0,18120,28,5,-4,93.19,4.73,0.49,17843.562088327544,0.003637
497,1900-01-01 19:35:18.900,21.78834,39.063332,64.37,-5866,136,17254,3,-23,-2,93.19,6.77,0.54,17999.083198874327,0.003879
498,1900-01-01 19:35:19.100,21.788321,39.063305,64.11,-5660,-68,17042,-4,-15,5,93.14,8.92,0.36,17999.21164940287,0.003498
499,1900-01-01 19:35:19.300,21.7883,39.063278,63.79,-5742,-344,17086,16,-2,3,93.07,10.75,0.16,17957.44937344945,0.003637
500,1900-01-01 19:35:19.500,21.78828,39.063251,63.05,-5242,-80,15620,-2,-18,2,93.01,12.14,0.15,16476.27348644104,0.003566
501,1900-01-01 19:35:19.800,21.788252,39.063213,61.24,8,86,14828,-6,62,6,92.95,10.65,0.27,15636.897134661978,0.005009
502,1900-01-01 19:35:20.000,21.788235,39.063187,60.02,-1152,96,15554,1,-25,-5,93.0,9.35,0.35,15596.808006768564,0.003283
503,1900-01-01 19:35:20.200,21.788218,39.063164,57.61,-1606,-180,15404,-5,13,-1,93.06,8.53,0.3,15448.169600311876,0.003035
504,1900-01-01 19:35:20.400,21.7882,39.063145,54.96,-428,-428,17930,18,20,-2,93.08,7.68,0.26,15580.890090107176,0.002803
505,1900-01-01 19:35:20.500,21.788195,39.063133,52.51,774,1184,15442,12,45,-2,93.11,6.31,0.37,15656.88615274442,0.001358
506,1900-01-01 19:35:20.700,21.788181,39.063114,50.9,-912,-74,15650,-20,-36,-4,93.17,5.34,0.32,16660.23349176115,0.002504
507,1900-01-01 19:35:20.900,21.788166,39.063091,50.68,48,-426,16660,-6,1,-1,93.19,4.61,0.19,16662.12915566315,0.002902
508,1900-01-01 19:35:21.100,21.788151,39.063068,50.72,652,488,17526,-10,-1,-3,93.21,3.8,0.2,16660.156661928482,0.002902
509,1900-01-01 19:35:21.300,21.788136,39.063049,50.55,-486,262,16660,8,-8,-1,93.24,3.2,0.11,16704.36721339662,0.002575
510,1900-01-01 19:35:21.500,21.78812,39.063026,50.14,1384,-54,17098,6,16,-2,93.25,2.36,0.1,16710.81159010537,0.002967
511,1900-01-01 19:35:21.700,21.788105,39.063007,50.33,458,-314,16698,6,13,-1,93.25,1.7,0.21,16715.55610800909,0.002575
512,1900-01-01 19:35:21.800,21.788097,39.062996,50.17,764,-98,14586,7,-7,-1,93.26,1.0,0.35,16721.154385986632,0.001443
513,1900-01-01 19:35:22.000,21.788084,39.062973,50.42,1042,660,16924,-5,-7,-4,93.3,0.53,0.51,16016.532208939612,0.00278
514,1900-01-01 19:35:22.200,21.788069,39.062954,50.93,878,-54,15934,-1,16,-2,93.34,-0.05,0.53,15952.396935883962,0.002575
515,1900-01-01 19:35:22.400,21.788052,39.062931,51.48,532,-148,15998,-6,0,-4,93.37,-0.52,0.47,16022.166020859977,0.003035
516,1900-01-01 19:35:22.600,21.788036,39.062908,51.84,746,228,15902,-27,-4,-5,93.4,-0.72,0.46,16022.166020859977,0.002967
517,1900-01-01 19:35:22.700,21.788029,39.062897,51.95,944,-470,18700,18,-39,-3,93.43,-0.97,0.38,16636.29838635987,0.001377
518,1900-01-01 19:35:22.900,21.788013,39.062874,52.75,1064,330,16618,17,3,1,93.45,-1.12,0.44,16636.29838635987,0.002967
519,1900-01-01 19:35:23.000,21.788006,39.062862,52.75,398,510,18118,17,3,-3,93.46,-1.36,0.53,16629.597108769653,0.001463
520,1900-01-01 19:35:23.200,21.787989,39.06284,52.8,358,-330,16340,-5,-30,-3,93.47,-1.45,0.59,16348.465983082328,0.002955
521,1900-01-01 19:35:23.400,21.787973,39.062817,52.79,526,426,15862,-5,-10,0,93.49,-1.34,0.51,15869.768240273706,0.002967
522,1900-01-01 19:35:23.500,21.787966,39.062805,52.96,-418,344,15264,-15,-8,-2,93.51,-1.14,0.46,15859.23655161244,0.001463
523,1900-01-01 19:35:23.700,21.787949,39.062782,53.14,-548,-252,15852,10,-21,-1,93.52,-0.92,0.42,15861.641907444513,0.003035
524,1900-01-01 19:35:23.800,21.787941,39.062775,53.21,-2132,-234,15656,4,-15,-4,93.55,-0.35,0.5,15994.899311968175,0.001146
525,1900-01-01 19:35:24.000,21.787926,39.062752,53.17,-2902,74,16664,1,-18,-4,93.59,0.49,0.53,16914.96308006612,0.002902
526,1900-01-01 19:35:24.100,21.787918,39.06274,53.03,-3462,718,17682,0,-16,-2,93.63,1.91,0.48,17720.806527920788,0.001525
527,1900-01-01 19:35:24.300,21.787901,39.062717,52.93,-3642,616,17378,3,14,-2,93.64,2.94,0.45,17754.392132652698,0.003035
528,1900-01-01 19:35:24.400,21.787893,39.062706,52.9,-3630,216,18106,3,2,3,93.61,4.28,0.28,17756.849495335595,0.001443
529,1900-01-01 19:35:24.600,21.787878,39.062683,52.79,-3806,206,15802,-8,-2,5,93.54,5.08,0.16,17193.80202282206,0.002902
530,1900-01-01 19:35:24.700,21.787868,39.062672,52.68,-4242,-214,16766,-10,-2,4,93.47,6.26,0.02,17035.969241578245,0.001589
531,1900-01-01 19:35:24.900,21.787853,39.062649,52.54,-4400,-282,16604,-3,-4,8,93.41,6.92,-0.07,17036.95911834034,0.002902
532,1900-01-01 19:35:25.000,21.787846,39.062637,52.32,-3394,-592,16400,11,1,9,93.31,7.74,-0.15,16949.677755048913,0.001463
533,1900-01-01 19:35:25.200,21.78783,39.062618,51.57,-1000,-338,17574,11,11,11,93.22,7.76,-0.11,16436.12569920296,0.002648
534,1900-01-01 19:35:25.300,21.787823,39.062607,50.89,-1052,112,15746,2,6,6,93.14,7.08,-0.02,16308.017660034588,0.001377
535,1900-01-01 19:35:25.500,21.787807,39.062584,49.4,-690,-122,14338,8,26,4,93.09,6.36,0.05,16069.710264967443,0.002967
536,1900-01-01 19:35:25.700,21.787794,39.062565,46.89,-436,-208,16276,-3,-21,4,93.07,5.9,0.11,15853.492612039783,0.002437
537,1900-01-01 19:35:25.900,21.787781,39.062546,45.01,-768,-310,16050,21,14,8,93.03,5.4,0.05,16056.384399982457,0.002437
538,1900-01-01 19:35:26.000,21.787775,39.062538,43.41,234,1012,15838,22,48,6,92.97,4.49,0.17,16278.784721225353,0.001062
539,1900-01-01 19:35:26.200,21.787764,39.062523,42.78,-284,-100,16934,26,-32,1,92.98,3.76,0.38,16888.940168050805,0.001974
540,1900-01-01 19:35:26.300,21.787758,39.062511,42.73,824,1040,17504,8,-5,-1,92.99,3.37,0.58,16938.309124585016,0.001407
541,1900-01-01 19:35:26.500,21.787745,39.062492,42.57,90,302,16886,7,22,0,93.0,2.83,0.64,17508.36154527316,0.002437
542,1900-01-01 19:35:26.600,21.787739,39.062485,42.42,248,-306,17918,8,11,-1,93.0,2.22,0.61,17527.92389303422,0.000984
543,1900-01-01 19:35:26.800,21.787725,39.062466,42.43,788,466,17924,12,-9,-4,93.01,1.78,0.66,16910.798207062846,0.002504
544,1900-01-01 19:35:26.900,21.78772,39.062458,42.34,870,718,15900,10,18,-6,93.07,1.44,0.76,17945.160350356306,0.000996
545,1900-01-01 19:35:27.100,21.787706,39.062439,42.42,1404,868,16682,-15,0,-9,93.17,1.02,1.0,16717.312104522065,0.002504
546,1900-01-01 19:35:27.300,21.787693,39.06242,42.67,1126,84,18082,20,7,-7,93.22,0.77,0.97,16732.58796480688,0.002437
547,1900-01-01 19:35:27.400,21.787687,39.062412,42.96,852,650,15226,9,2,-9,93.32,0.2,1.05,16726.619024776046,0.001062
548,1900-01-01 19:35:27.600,21.787674,39.062393,43.04,1198,472,18578,20,15,-8,93.38,-0.04,1.07,16398.950820098216,0.002437
549,1900-01-01 19:35:27.700,21.787666,39.062386,43.22,810,318,16370,16,-1,-9,93.48,-0.47,1.12,15708.000636618272,0.001146
550,1900-01-01 19:35:27.900,21.787653,39.062366,43.45,706,806,14970,-7,2,-5,93.52,-0.68,1.2,15704.897834752062,0.002521
551,1900-01-01 19:35:28.000,21.787647,39.062359,43.65,776,354,15680,-1,19,0,93.56,-1.03,1.08,15702.41064295543,0.000984
552,1900-01-01 19:35:28.200,21.787634,39.06234,44.42,1096,298,14244,-19,18,4,93.55,-1.26,1.04,14990.678436948743,0.002437
553,1900-01-01 19:35:28.300,21.787626,39.062328,44.5,646,316,16824,11,-6,-2,93.53,-1.49,1.03,15702.370266937409,0.001525
554,1900-01-01 19:35:28.500,21.787613,39.062309,44.63,630,348,14600,3,4,0,93.54,-1.66,1.01,16843.416518034577,0.002437
555,1900-01-01 19:35:28.600,21.787607,39.062302,44.76,1150,78,17692,12,-25,-3,93.53,-1.82,1.06,16843.673352330246,0.000984
556,1900-01-01 19:35:28.800,21.787592,39.062283,45.2,750,302,17480,0,2,-2,93.55,-1.94,1.14,17499.30844347856,0.002575
557,1900-01-01 19:35:28.900,21.787586,39.062271,45.34,1190,336,16436,-18,-3,-4,93.57,-2.13,1.15,17504.842987013624,0.001407
558,1900-01-01 19:35:29.100,21.787571,39.062252,45.97,476,462,18322,17,-1,-3,93.59,-2.26,1.12,16489.034659433524,0.002575
559,1900-01-01 19:35:29.300,21.787558,39.062233,46.28,882,-674,16462,15,-26,0,93.6,-2.34,1.08,16474.379259929643,0.002437
560,1900-01-01 19:35:29.400,21.78755,39.062222,46.28,1392,426,16300,-6,2,-1,93.62,-2.37,1.16,16339.676985791366,0.001443
561,1900-01-01 19:35:29.600,21.787537,39.062202,46.35,1040,552,16134,3,1,-1,93.64,-2.37,1.17,16342.469336058122,0.002521
562,1900-01-01 19:35:29.700,21.787529,39.062195,46.4,1794,1276,15040,-11,8,0,93.64,-2.41,1.19,16176.905142826301,0.001146
563,1900-01-01 19:35:29.900,21.787516,39.062172,46.63,80,566,17130,-5,-10,-1,93.63,-2.36,1.12,15423.558733314436,0.00278
564,1900-01-01 19:35:30.000,21.787508,39.062164,46.86,738,-2,15396,-16,-5,0,93.63,-2.34,1.02,15418.070047836727,0.001214
565,1900-01-01 19:35:30.200,21.787493,39.062145,47.38,196,368,15276,-18,26,1,93.62,-2.32,1.02,16890.946569094343,0.002575
566,1900-01-01 19:35:30.400,21.787479,39.062122,48.56,782,112,16874,-7,4,-2,93.63,-2.24,0.98,16892.48187804267,0.00284
567,1900-01-01 19:35:30.500,21.787472,39.062111,48.66,834,166,17330,-6,3,0,93.63,-2.13,0.91,16892.48187804267,0.001377
568,1900-01-01 19:35:30.600,21.787464,39.062103,48.58,934,74,17328,12,14,2,93.63,-2.13,0.8,17345.998155194182,0.001214
569,1900-01-01 19:35:30.800,21.787449,39.06208,48.87,288,32,15054,-8,0,0,93.62,-2.18,0.81,17335.94946923877,0.002902
570,1900-01-01 19:35:30.900,21.787441,39.062069,48.94,498,808,17500,12,-2,2,93.62,-1.98,0.76,17339.255924058565,0.001443
571,1900-01-01 19:35:31.100,21.787426,39.06205,49.05,194,494,16130,4,2,1,93.61,-2.03,0.82,16144.16786334929,0.002575
572,1900-01-01 19:35:31.200,21.787418,39.062038,49.07,466,416,18360,-18,-4,-3,93.62,-1.92,0.85,16144.289764495681,0.001525
573,1900-01-01 19:35:31.400,21.787403,39.062019,49.23,566,490,15362,-21,1,-1,93.62,-1.85,0.81,16143.71394692064,0.002575
574,1900-01-01 19:35:31.500,21.787395,39.062008,49.19,450,508,14666,-3,-2,-3,93.62,-1.89,0.67,15560.543563770516,0.001443
575,1900-01-01 19:35:31.700,21.78738,39.061989,49.68,-1268,330,17752,-3,-23,-5,93.66,-1.59,0.58,15562.745387623612,0.002575
576,1900-01-01 19:35:31.900,21.787365,39.061966,49.84,964,372,15548,-4,22,1,93.67,-1.62,0.6,17008.979863589702,0.002902
577,1900-01-01 19:35:32.100,21.78735,39.061943,50.09,1224,-210,16980,11,6,-2,93.68,-1.64,0.58,17007.279970647865,0.002902
578,1900-01-01 19:35:32.200,21.787342,39.061935,50.08,936,226,17192,-5,-17,-3,93.7,-1.55,0.63,16569.609892812805,0.001214
579,1900-01-01 19:35:32.400,21.787327,39.061913,50.27,-768,-554,16540,-8,22,1,93.73,-1.21,0.64,16567.793938844123,0.002818
580,1900-01-01 19:35:32.600,21.787312,39.06189,50.22,1368,658,15844,-5,-32,-3,93.73,-1.45,0.64,16573.189674893605,0.002902
581,1900-01-01 19:35:32.800,21.787296,39.061871,49.93,-66,-622,15350,4,-9,-3,93.77,-0.93,0.58,16575.602070513156,0.002648
582,1900-01-01 19:35:33.000,21.787281,39.061848,50.04,890,-840,20074,19,42,1,93.78,-0.84,0.56,18045.194041627816,0.002902
583,1900-01-01 19:35:33.100,21.787273,39.06184,50.28,900,-832,19016,20,-9,-6,93.78,-0.97,0.45,18044.698057878388,0.001214
584,1900-01-01 19:35:33.300,21.787258,39.061817,50.64,1000,1342,18012,14,27,2,93.79,-0.9,0.52,18039.688467376593,0.002902
585,1900-01-01 19:35:33.400,21.787251,39.061806,50.63,208,670,16660,0,17,-1,93.78,-0.88,0.54,17767.019446153594,0.001377
586,1900-01-01 19:35:33.600,21.787235,39.061783,50.68,-102,454,14746,-11,42,2,93.79,-1.14,0.53,17188.322780306404,0.002967
587,1900-01-01 19:35:33.800,21.78722,39.061764,50.86,-864,250,17760,37,-29,1,93.8,-0.74,0.55,16667.482713355366,0.002575
588,1900-01-01 19:35:34.000,21.787205,39.061741,50.77,1006,934,17174,-29,14,-4,93.8,-0.95,0.72,17176.12237962923,0.002902
589,1900-01-01 19:35:34.200,21.787188,39.061718,50.92,626,-66,13190,-54,-68,-6,93.82,-0.98,0.5,17427.779319236288,0.003035
590,1900-01-01 19:35:34.400,21.787172,39.061699,51.0,-606,-978,17416,47,40,2,93.9,-0.18,0.16,17184.39606154374,0.002648
591,1900-01-01 19:35:34.700,21.787149,39.061665,51.07,594,240,18216,19,5,-5,93.89,-0.82,0.43,17426.25169105508,0.004343
592,1900-01-01 19:35:34.900,21.787134,39.061646,51.11,250,-196,14932,23,-45,1,93.89,-0.89,0.7,17427.779319236288,0.002575
593,1900-01-01 19:35:35.100,21.787119,39.061623,51.0,888,456,17632,4,9,0,93.87,-0.56,1.06,16970.09723012806,0.002902
594,1900-01-01 19:35:35.300,21.787104,39.0616,51.01,772,758,16958,-18,13,2,93.85,-0.89,1.08,16319.842523750038,0.002902
595,1900-01-01 19:35:35.500,21.787086,39.061581,51.29,-396,-548,16314,0,7,-1,93.84,-0.86,0.8,16323.912888765364,0.002803
596,1900-01-01 19:35:35.700,21.787071,39.061558,51.36,-250,358,14376,-3,-7,1,93.85,-0.97,0.7,15897.668508306493,0.002902
597,1900-01-01 19:35:35.900,21.787056,39.061535,51.43,340,558,15890,20,18,0,93.86,-0.93,0.75,15897.668508306493,0.002902
598,1900-01-01 19:35:36.100,21.787041,39.061512,51.37,636,64,14562,-3,-9,1,93.86,-0.99,0.82,15903.429315716783,0.002902
599,1900-01-01 19:35:36.300,21.787025,39.061493,51.4,900,954,16058,-8,0,-2,93.86,-0.94,0.76,16071.288933996551,0.002648
600,1900-01-01 19:35:36.400,21.787016,39.061481,51.42,154,844,16908,9,2,0,93.86,-0.82,0.66,16086.05172191113,0.001593
601,1900-01-01 19:35:36.600,21.787001,39.061459,51.37,-484,362,16400,25,-11,-1,93.85,-0.87,0.67,16413.91726554024,0.002818
602,1900-01-01 19:35:36.800,21.786985,39.061436,51.56,676,658,16060,4,10,0,93.85,-1.0,0.86,16912.25898571802,0.002967
603,1900-01-01 19:35:37.000,21.786968,39.061417,52.23,114,50,17432,6,2,0,93.84,-1.01,0.89,16440.039659319562,0.002724
604,1900-01-01 19:35:37.100,21.786961,39.061405,52.35,42,294,16946,12,-29,-2,93.84,-1.1,0.87,16951.6868777122,0.001463
605,1900-01-01 19:35:37.300,21.786943,39.061382,52.27,-238,962,16436,23,7,0,93.85,-1.03,0.89,16948.968346185557,0.003106
606,1900-01-01 19:35:37.400,21.786936,39.061371,52.16,560,424,17148,4,13,0,93.87,-0.98,0.97,16598.335338219913,0.001377
607,1900-01-01 19:35:37.600,21.786921,39.061348,52.45,728,296,15506,-10,-21,2,93.86,-0.97,1.05,16451.00215792339,0.002902
608,1900-01-01 19:35:37.700,21.786911,39.061337,52.49,404,1134,16588,13,-2,1,93.85,-0.97,1.08,15885.536692224157,0.001589
609,1900-01-01 19:35:37.900,21.786896,39.061314,52.76,1826,-410,15668,2,-8,0,93.84,-1.22,1.09,15915.592103343186,0.002902
610,1900-01-01 19:35:38.100,21.786879,39.061291,52.71,-428,1442,15870,25,-37,-30,93.97,-0.94,1.55,16539.93240614967,0.003035
611,1900-01-01 19:35:38.200,21.786871,39.061279,52.66,320,2812,18060,9,52,-67,94.66,-0.83,2.7,16585.4539883598,0.001525
612,1900-01-01 19:35:38.400,21.786854,39.06126,52.7,726,2442,16472,-23,-5,-66,95.08,-1.1,3.12,16614.40194530035,0.002724
613,1900-01-01 19:35:38.500,21.786846,39.061249,52.76,-1060,1910,17728,-32,-33,-68,95.83,-0.94,3.48,16610.954578229394,0.001443
614,1900-01-01 19:35:38.700,21.786831,39.061226,52.64,-516,2128,14826,-40,9,-67,96.36,-0.89,3.62,16574.50729282774,0.002902
615,1900-01-01 19:35:38.800,21.786821,39.061214,52.62,-262,906,15746,-43,5,-53,96.98,-0.9,3.43,16488.9971799379,0.001665
616,1900-01-01 19:35:39.000,21.786806,39.061192,52.5,-664,-314,16456,-71,-9,-22,97.34,-0.75,2.85,16461.080644963746,0.002818
617,1900-01-01 19:35:39.200,21.786791,39.061169,52.44,336,-2006,17092,-52,-24,35,97.25,-0.63,1.52,16538.504890104185,0.002902
618,1900-01-01 19:35:39.300,21.786783,39.061157,52.4,392,-1628,18564,10,26,59,96.65,-0.39,-0.0,16538.504890104185,0.001525
619,1900-01-01 19:35:39.500,21.786768,39.061134,52.74,268,-3190,14476,5,-3,63,95.9,-0.62,-1.01,16381.300680959372,0.002902
620,1900-01-01 19:35:39.700,21.786753,39.061108,53.26,-498,-1438,15860,-4,-18,55,95.1,-0.37,-1.59,16380.895946192932,0.003161
621,1900-01-01 19:35:39.900,21.786736,39.061085,53.05,-286,-1120,16298,-22,-2,54,94.67,-0.21,-1.99,16361.621191067834,0.003035
622,1900-01-01 19:35:40.100,21.78672,39.061062,53.12,242,-1940,16372,23,5,50,94.09,-0.03,-2.59,16410.299814445803,0.002967
623,1900-01-01 19:35:40.200,21.786713,39.06105,53.16,100,-584,16522,33,-8,33,93.6,0.13,-2.47,16532.3530085708,0.001463
624,1900-01-01 19:35:40.400,21.786697,39.061028,53.1,-34,586,16526,2,4,11,93.36,0.34,-1.84,16536.477133900073,0.002885
625,1900-01-01 19:35:40.600,21.78668,39.061005,53.12,-414,-580,17592,-13,-1,5,93.27,0.38,-1.51,16526.038000682438,0.003035
626,1900-01-01 19:35:40.800,21.786665,39.060982,53.26,286,-10,18006,25,24,-4,93.27,0.33,-1.19,16534.016692866862,0.002902
627,1900-01-01 19:35:41.000,21.786648,39.060959,53.31,-970,872,15682,21,-15,-16,93.42,0.18,-0.59,16407.321536436106,0.003035
628,1900-01-01 19:35:41.200,21.786631,39.060936,53.11,-574,306,16400,-20,-13,-9,93.56,0.57,0.01,16190.048671946604,0.003035
629,1900-01-01 19:35:41.400,21.786615,39.060913,53.22,-490,-474,15816,-32,-8,-11,93.7,0.69,0.12,16191.071490176306,0.002967
630,1900-01-01 19:35:41.600,21.786598,39.06089,53.18,-920,246,16178,-25,-3,-3,93.79,0.69,0.2,16189.837059093585,0.003035
631,1900-01-01 19:35:41.800,21.786583,39.060867,53.11,142,606,17952,7,-5,-3,93.86,0.78,0.22,16187.288222552905,0.002902
632,1900-01-01 19:35:42.000,21.786566,39.060844,53.21,-568,-14,15454,10,1,-2,93.9,0.81,0.31,16792.892425070793,0.003035
633,1900-01-01 19:35:42.200,21.786551,39.060822,52.65,744,972,17024,-8,32,-21,94.04,0.74,0.56,17034.85004336698,0.002818
634,1900-01-01 19:35:42.400,21.786533,39.060799,52.38,-544,370,16780,-2,-9,-32,94.41,0.78,1.07,16791.288336515456,0.003106
635,1900-01-01 19:35:42.600,21.786518,39.06078,52.35,-48,1998,18912,-8,26,-31,94.81,0.72,1.5,16791.288336515456,0.002575
636,1900-01-01 19:35:42.900,21.786493,39.060745,52.22,-492,86,15850,-20,-4,-24,95.13,0.65,1.55,16792.892425070793,0.004559
637,1900-01-01 19:35:43.000,21.786486,39.060734,52.23,-770,16,15390,21,-29,-17,95.34,1.01,1.76,16643.495906809963,0.001377
638,1900-01-01 19:35:43.200,21.78647,39.060711,52.24,-762,1602,18192,-8,22,-16,95.55,1.21,1.97,16137.48158790584,0.002967
639,1900-01-01 19:35:43.400,21.786455,39.060688,52.17,494,10,16636,2,11,-8,95.63,1.02,1.54,16653.449972903512,0.002902
640,1900-01-01 19:35:43.600,21.78644,39.060665,52.1,-746,292,16120,16,-44,-10,95.71,1.33,1.45,17274.118790838507,0.002902
641,1900-01-01 19:35:43.800,21.786423,39.060642,52.04,-818,-360,17258,-49,22,33,95.63,1.75,1.06,16656.60865842744,0.003035
642,1900-01-01 19:35:44.000,21.786407,39.060619,51.95,-286,-2446,17280,-36,18,81,94.84,1.47,-0.62,16721.693215700376,0.002967
643,1900-01-01 19:35:44.200,21.786392,39.0606,51.74,-1042,-2462,15292,6,2,88,93.77,1.52,-2.14,16754.253071981453,0.002575
644,1900-01-01 19:35:44.400,21.786377,39.060577,51.6,-788,-2212,16556,-7,-15,102,92.66,1.59,-3.05,16738.15545393219,0.002902
645,1900-01-01 19:35:44.600,21.786362,39.060555,51.56,-180,-2806,16294,11,7,110,91.33,1.62,-4.23,16717.60891993828,0.002818
646,1900-01-01 19:35:44.800,21.786345,39.060532,51.43,304,-2276,17536,17,-39,108,90.23,1.62,-4.93,16914.22974894216,0.003035
647,1900-01-01 19:35:45.000,21.786329,39.060513,51.23,-444,-1638,17380,4,-12,94,88.96,1.82,-5.42,16848.77645409304,0.002648
648,1900-01-01 19:35:45.200,21.786312,39.06049,50.98,418,-1006,16768,9,-11,67,87.96,1.7,-5.57,17060.658252248064,0.003035
649,1900-01-01 19:35:45.400,21.786297,39.060471,50.85,-914,-760,15602,12,-12,23,87.43,1.82,-5.01,16786.2011187761,0.002575
650,1900-01-01 19:35:45.600,21.78628,39.060448,50.47,-182,386,17030,39,45,-13,87.46,1.72,-3.91,15607.835339982288,0.003035
651,1900-01-01 19:35:45.700,21.786272,39.06044,50.32,294,1136,15310,10,-23,-31,87.79,1.32,-2.48,15373.05564941466,0.001214
652,1900-01-01 19:35:45.900,21.786255,39.060421,50.07,-800,886,15312,7,18,-31,88.21,1.62,-1.41,15373.05564941466,0.002724
653,1900-01-01 19:35:46.100,21.786238,39.060402,49.24,-540,1474,15338,-27,-16,-39,88.66,1.63,-0.53,15390.275631060023,0.002724
654,1900-01-01 19:35:46.300,21.786221,39.060383,49.23,-864,588,16130,-1,28,-44,89.2,1.72,0.17,15882.142046965831,0.002724
655,1900-01-01 19:35:46.500,21.786203,39.060364,49.13,-562,1336,16568,-3,-2,-49,89.73,1.55,0.8,16166.870569160872,0.002803
656,1900-01-01 19:35:46.700,21.786186,39.060345,48.96,-652,678,15844,-21,14,-50,90.38,1.66,1.32,16166.870569160872,0.002724
657,1900-01-01 19:35:46.900,21.786171,39.060326,48.66,-620,898,16980,-21,18,-50,90.81,1.65,1.61,16633.337608549886,0.002575
658,1900-01-01 19:35:47.100,21.786154,39.060307,48.43,-10,1638,14024,-25,24,-49,91.33,1.43,1.89,16234.716135491868,0.002724
659,1900-01-01 19:35:47.200,21.786146,39.060295,48.3,-938,1372,16624,27,-10,-52,91.95,1.47,2.16,16234.716135491868,0.001525
660,1900-01-01 19:35:47.400,21.786131,39.060276,48.31,36,686,16198,-9,-18,-43,92.52,1.48,2.48,16218.115673530017,0.002575
661,1900-01-01 19:35:47.600,21.786114,39.060257,47.98,-778,452,14858,4,5,-32,92.98,1.57,2.6,16209.903886204878,0.002724
662,1900-01-01 19:35:47.800,21.786098,39.060238,47.35,-426,-314,17770,0,-34,-19,93.3,1.55,2.5,16202.33637473312,0.002648
663,1900-01-01 19:35:48.000,21.786083,39.060219,47.23,-332,174,15798,3,11,-4,93.4,1.54,2.4,17773.95285241862,0.002575
664,1900-01-01 19:35:48.200,21.78607,39.0602,47.17,-308,-236,19054,11,-10,-7,93.46,1.46,2.32,17773.66838893986,0.002437
665,1900-01-01 19:35:48.400,21.786055,39.060181,46.92,118,464,17944,6,8,-4,93.51,1.35,2.31,16825.413278728105,0.002575
666,1900-01-01 19:35:48.600,21.786039,39.060162,46.86,-766,-142,16640,24,14,-2,93.54,1.34,2.1,16831.32329913486,0.002648
667,1900-01-01 19:35:48.800,21.786026,39.060139,46.99,-556,68,16822,15,9,-1,93.56,1.14,2.1,16658.144554541483,0.00278
668,1900-01-01 19:35:49.000,21.786011,39.06012,46.9,-1442,1062,15776,-7,-5,0,93.58,1.35,2.08,15915.605172282956,0.002575
669,1900-01-01 19:35:49.200,21.785995,39.060101,46.83,-1790,132,15850,-18,-7,1,93.59,2.29,1.64,15841.911627073294,0.002648
670,1900-01-01 19:35:49.500,21.785975,39.06007,46.73,-1778,46,15136,-31,-22,0,93.56,2.7,1.22,15841.832469761823,0.003898
671,1900-01-01 19:35:49.700,21.785959,39.060051,46.47,-262,-142,15626,-2,18,3,93.53,2.66,0.84,15640.596791682854,0.002648
672,1900-01-01 19:35:49.900,21.785946,39.060032,46.18,-674,-736,15882,-13,3,3,93.51,2.44,0.71,15631.084671256822,0.002437
673,1900-01-01 19:35:50.200,21.785925,39.060005,44.0,-342,192,15394,-2,7,2,93.49,2.19,0.63,15887.570739417653,0.003637
674,1900-01-01 19:35:50.400,21.785912,39.059986,43.88,-396,648,16386,0,28,1,93.45,2.03,0.61,16328.799833423152,0.002437
675,1900-01-01 19:35:50.700,21.785891,39.059959,43.58,-730,-146,16932,6,-7,2,93.44,1.77,0.54,16328.799833423152,0.003637
676,1900-01-01 19:35:51.000,21.78587,39.059933,43.39,-448,-410,16322,-10,-12,-1,93.45,1.81,0.6,16329.360795818066,0.003558
677,1900-01-01 19:35:51.200,21.785856,39.059914,43.27,-468,-186,15758,31,-6,-5,93.5,1.85,0.7,16338.968755707932,0.002504
678,1900-01-01 19:35:51.400,21.785843,39.059895,43.26,-1772,-132,14396,10,-1,-7,93.6,2.28,0.91,16418.437562691524,0.002437
679,1900-01-01 19:35:51.700,21.785824,39.059868,43.35,-2462,310,16324,14,4,-9,93.71,3.32,1.02,16422.821316692207,0.003498
680,1900-01-01 19:35:51.900,21.78581,39.059853,43.1,-2076,404,16496,7,-5,-2,93.77,3.74,1.09,16424.864565651675,0.002196
681,1900-01-01 19:35:52.100,21.785797,39.059834,43.08,132,858,16758,-10,26,1,93.79,3.83,1.11,16360.633484067785,0.002437
682,1900-01-01 19:35:52.400,21.785776,39.059807,42.39,-966,514,16240,12,4,-2,93.78,3.38,1.03,16516.102324701187,0.003637
683,1900-01-01 19:35:52.600,21.785765,39.059788,42.0,-632,958,15946,-13,1,-2,93.78,3.02,0.94,16254.088593335524,0.002312
684,1900-01-01 19:35:52.800,21.785751,39.059772,41.01,-440,506,19538,-20,72,1,93.78,2.73,0.73,15966.539261843815,0.00227
685,1900-01-01 19:35:52.900,21.785746,39.059765,40.88,-18,300,15750,-33,-77,-8,93.76,1.84,0.56,15954.890034092996,0.000912
686,1900-01-01 19:35:53.100,21.785732,39.059746,40.53,-1122,-64,15710,-26,-11,2,93.81,2.6,0.37,16880.420018471104,0.002504
687,1900-01-01 19:35:53.300,21.785721,39.059731,40.33,-208,-1086,16874,5,-4,0,93.82,2.6,0.22,15752.471552108895,0.001974
688,1900-01-01 19:35:53.500,21.785709,39.059711,40.08,-932,152,17394,-6,45,4,93.8,2.54,0.19,16017.853663958851,0.002459
689,1900-01-01 19:35:53.700,21.785696,39.059696,40.08,-234,338,15590,13,23,5,93.77,1.92,0.26,16716.3290228447,0.002119
690,1900-01-01 19:35:53.900,21.785685,39.059677,39.89,-46,68,16016,23,-34,-2,93.76,1.71,0.2,16727.324950511364,0.002312
691,1900-01-01 19:35:54.000,21.785679,39.059669,39.76,-650,236,16714,18,-29,6,93.75,1.94,0.32,16728.299136493224,0.001062
692,1900-01-01 19:35:54.200,21.785666,39.059654,39.53,-1284,64,16718,2,7,-4,93.73,2.05,0.42,16764.908231183374,0.002119
693,1900-01-01 19:35:54.400,21.785654,39.059635,39.44,-3554,360,16980,-18,-20,0,93.72,2.83,0.48,17089.30683205144,0.002373
694,1900-01-01 19:35:54.600,21.785643,39.05962,39.13,-4196,574,15926,-2,4,-1,93.7,4.6,0.33,17168.47273347283,0.001974
695,1900-01-01 19:35:54.800,21.785629,39.059605,38.9,-3904,-288,16212,-3,2,2,93.66,5.6,0.26,17398.363371305935,0.002196
696,1900-01-01 19:35:55.000,21.785618,39.059589,38.53,-4436,154,16954,-5,-4,5,93.6,6.79,0.2,16746.6935243946,0.002056
697,1900-01-01 19:35:55.100,21.785612,39.059578,37.97,-3752,-88,17838,11,0,2,93.55,7.86,0.09,16932.87193597117,0.001317
698,1900-01-01 19:35:55.300,21.785601,39.059563,36.85,-4388,128,15770,5,-2,4,93.47,8.65,0.04,17417.65196575015,0.001974
699,1900-01-01 19:35:55.500,21.785589,39.059547,36.49,-3990,46,16456,1,18,5,93.39,9.32,0.06,17236.110234040625,0.002124
700,1900-01-01 19:35:55.700,21.78558,39.059532,35.76,-3730,362,17018,11,7,4,93.33,9.9,0.07,17283.354419787844,0.001844
701,1900-01-01 19:35:55.900,21.785568,39.059521,34.8,-3782,-316,16816,-1,8,6,93.29,10.42,0.13,17254.25732971431,0.001752
702,1900-01-01 19:35:56.100,21.785559,39.059505,33.21,-4370,362,16982,-2,-3,4,93.24,10.93,0.19,17238.764920956488,0.001932
703,1900-01-01 19:35:56.300,21.785549,39.059494,31.71,-3852,306,16254,6,-6,3,93.19,11.28,0.17,16705.06869186715,0.001589
704,1900-01-01 19:35:56.500,21.78554,39.059479,30.29,-3630,-184,16190,-3,5,6,93.14,11.5,0.15,16743.66196505412,0.001844
705,1900-01-01 19:35:56.700,21.785532,39.059467,28.43,-4008,170,15268,-16,-5,2,93.11,11.68,0.17,16741.728704049652,0.001525
706,1900-01-01 19:35:56.900,21.785524,39.05946,26.23,-4322,384,16344,3,-2,-1,93.08,11.94,0.15,16906.653128280595,0.001146
707,1900-01-01 19:35:57.100,21.785519,39.059452,23.74,-4832,-30,16808,7,-10,2,93.07,12.4,0.14,17489.596564815325,0.000996
708,1900-01-01 19:35:57.300,21.785513,39.059444,20.98,-5178,420,16890,-8,3,2,93.05,13.08,0.15,17547.270215050547,0.001062
709,1900-01-01 19:35:57.500,21.785507,39.059437,18.74,-8162,-156,22598,13,96,10,92.98,14.02,0.11,17546.829001275415,0.000984
710,1900-01-01 19:35:57.700,21.785503,39.059429,16.85,-5038,128,14460,-13,70,5,92.92,13.91,0.26,17476.400773614685,0.000938
711,1900-01-01 19:35:57.900,21.7855,39.059425,15.16,494,-104,16734,1,50,-4,92.89,12.68,0.2,16232.023780169866,0.000531
712,1900-01-01 19:35:58.200,21.785494,39.059418,12.58,1268,390,15498,-6,8,5,92.88,10.0,0.3,16138.647526976974,0.000984
713,1900-01-01 19:35:58.400,21.785492,39.059414,9.83,1018,172,16224,-4,-5,0,92.94,8.02,0.46,16156.59543344451,0.000469
714,1900-01-01 19:35:58.600,21.78549,39.059414,7.61,1266,120,16106,10,-12,0,92.93,6.55,0.47,16157.708005778542,0.000222
715,1900-01-01 19:35:58.800,21.785488,39.05941,7.15,1358,256,16058,22,-39,-2,92.94,5.29,0.7,16153.076858604989,0.000469
716,1900-01-01 19:35:58.900,21.785488,39.05941,7.11,890,692,16594,-17,-133,-4,93.03,5.04,0.92,16109.069495163276,0.0
717,1900-01-01 19:35:59.100,21.785488,39.05941,0.0,1216,200,15662,-29,-110,-12,93.13,5.18,0.8,16108.130866118514,0.0
718,1900-01-01 19:35:59.300,21.785488,39.05941,0.0,2202,16,15838,-19,-104,-8,93.23,4.91,0.56,16579.86163995345,0.0
719,1900-01-01 19:35:59.400,21.785488,39.05941,0.0,1254,-608,16534,40,-98,-8,93.3,4.46,0.5,16156.74583571828,0.0
720,1900-01-01 19:35:59.600,21.785486,39.05941,6.6,790,596,17704,4,4,-3,93.38,4.0,0.89,16415.985989272773,0.000222
721,1900-01-01 19:35:59.800,21.785484,39.059406,7.18,1402,-40,16108,3,36,-10,93.44,2.68,0.91,16426.793844204658,0.000469
722,1900-01-01 19:35:59.900,21.785482,39.059406,7.32,1456,616,16356,7,54,-2,93.52,1.22,0.95,16431.490741865146,0.000222
723,1900-01-01 19:36:00.100,21.78548,39.059402,7.55,1574,688,15466,-33,110,1,93.49,-0.51,1.17,16433.981136657058,0.000469
724,1900-01-01 19:36:00.300,21.785477,39.059399,7.84,3904,-162,18440,-6,62,-6,93.51,-2.76,0.87,16443.10396488449,0.000455
725,1900-01-01 19:36:00.500,21.785475,39.059395,8.47,3248,282,18098,23,-53,3,93.47,-3.48,0.89,16824.164288308646,0.000469
726,1900-01-01 19:36:00.700,21.785471,39.059391,9.16,444,664,16302,11,-29,-2,93.52,-3.13,1.11,17441.932691075264,0.000607
727,1900-01-01 19:36:00.900,21.785467,39.059391,9.55,-2,186,16748,-1,0,2,93.48,-2.83,1.02,16759.037442526347,0.000445
728,1900-01-01 19:36:01.000,21.785465,39.059387,9.82,-66,426,17434,10,-6,8,93.45,-2.59,0.9,16758.14381129366,0.000469
729,1900-01-01 19:36:01.200,21.785461,39.059383,11.02,434,626,16194,1,-2,9,93.34,-2.26,0.95,16817.826375605142,0.000607
730,1900-01-01 19:36:01.300,21.78546,39.05938,11.99,398,312,17108,2,7,12,93.23,-2.16,0.95,16817.826375605142,0.000329
731,1900-01-01 19:36:01.500,21.785456,39.059376,12.4,314,-292,16812,-2,-4,25,93.09,-2.05,0.8,16713.50124899029,0.000607
732,1900-01-01 19:36:01.700,21.785452,39.059372,12.82,-882,-1012,16708,-18,-4,74,92.59,-1.38,0.16,16760.801054842217,0.000607
733,1900-01-01 19:36:01.800,21.78545,39.059368,13.17,-862,-2674,15436,-23,5,141,91.35,-0.76,-0.98,16839.079666062513,0.000469
734,1900-01-01 19:36:02.000,21.785446,39.059361,13.22,-988,-3388,16602,-29,-23,258,88.95,-0.21,-2.63,15828.030957766035,0.000849
735,1900-01-01 19:36:02.200,21.78544,39.059357,13.38,-932,-4622,15186,-20,-29,370,84.85,0.49,-4.77,15859.225832303417,0.000785
736,1900-01-01 19:36:02.400,21.785437,39.059353,13.67,-586,-4184,14822,31,-43,425,81.38,0.73,-5.81,16449.707717768117,0.000531
737,1900-01-01 19:36:02.600,21.785431,39.059345,13.79,-1268,-3518,16310,-29,-34,497,75.99,1.12,-6.67,16468.896866517807,0.001062
738,1900-01-01 19:36:02.800,21.785427,39.059341,13.89,-1512,-4432,15878,-18,-47,548,69.73,1.2,-8.24,16628.999248301145,0.000607
739,1900-01-01 19:36:03.000,21.785421,39.059338,13.67,-1706,-3968,16154,-37,-36,585,63.4,1.24,-9.48,16695.002964959305,0.000736
740,1900-01-01 19:36:03.100,21.785418,39.059334,13.96,-988,-4406,16044,-51,-42,616,56.25,0.86,-10.85,16564.473912563597,0.000531
741,1900-01-01 19:36:03.300,21.785412,39.059334,13.83,-1930,-4362,15896,-14,-43,630,50.43,0.52,-11.81,16524.884144828367,0.000667
742,1900-01-01 19:36:03.500,21.785406,39.05933,13.87,-984,-5200,14368,-37,-13,696,43.04,-0.33,-12.97,16753.83753054804,0.000785
743,1900-01-01 19:36:03.700,21.785398,39.059326,13.84,-38,-6518,15218,-97,-57,745,35.41,-1.38,-14.33,16574.62711496099,0.000981
744,1900-01-01 19:36:03.800,21.785395,39.059326,13.73,-110,-7640,16508,-28,-60,807,25.63,-2.63,-16.41,16921.488468807936,0.000334
745,1900-01-01 19:36:04.000,21.785389,39.059326,13.71,-804,-7392,15168,5,-68,840,18.03,-3.77,-17.22,17081.342453097765,0.000667
746,1900-01-01 19:36:04.200,21.785381,39.059322,13.87,-328,-8580,15274,-78,-87,894,9.08,-5.12,-18.07,17535.71498399766,0.000981
747,1900-01-01 19:36:04.400,21.785376,39.059322,14.23,-796,-9212,15576,-33,-129,917,-1.87,-6.46,-19.52,17668.34785711443,0.000556
748,1900-01-01 19:36:04.500,21.785372,39.059326,14.01,-768,-9026,13738,-43,-132,944,-11.59,-7.38,-20.39,17422.531159392427,0.000607
749,1900-01-01 19:36:04.700,21.785364,39.059326,13.39,-944,-10080,14554,-70,-124,953,-22.35,-8.53,-21.37,17896.649071823475,0.00089
750,1900-01-01 19:36:04.900,21.785358,39.059326,13.39,-748,-10148,14768,-30,-78,947,-30.32,-9.41,-21.91,17934.19170188609,0.000667
751,1900-01-01 19:36:05.100,21.785353,39.05933,13.61,-614,-10212,17240,-41,-87,931,-40.18,-10.59,-22.44,18298.154223855476,0.000693
752,1900-01-01 19:36:05.300,21.785345,39.059334,13.59,-660,-10208,15558,-25,-87,915,-50.33,-11.78,-22.98,18585.216275308718,0.000981
753,1900-01-01 19:36:05.500,21.785339,39.059341,13.96,1328,-7818,15212,31,-60,806,-59.71,-13.17,-22.26,17817.93040731723,0.000984
754,1900-01-01 19:36:05.700,21.785334,39.059349,14.6,2554,-4340,16506,51,-29,596,-67.75,-14.44,-19.84,16552.59315031938,0.000996
755,1900-01-01 19:36:05.900,21.78533,39.059357,14.98,3112,-1884,15956,59,-17,391,-74.02,-15.1,-16.49,16268.568099252005,0.000938
756,1900-01-01 19:36:06.000,21.785328,39.059361,15.15,2786,660,15768,42,-18,191,-77.67,-15.01,-13.34,16188.723729806497,0.000469
757,1900-01-01 19:36:06.200,21.785324,39.059372,15.85,2134,1494,16216,17,11,32,-79.57,-14.52,-9.94,16189.346373464248,0.00122
758,1900-01-01 19:36:06.400,21.785324,39.059383,16.14,2734,-78,15796,-19,-4,13,-80.18,-13.88,-8.23,16453.462735849862,0.001136
759,1900-01-01 19:36:06.600,21.785326,39.059395,17.14,2684,162,19072,17,20,5,-80.51,-13.23,-7.37,16442.88989198675,0.001259
760,1900-01-01 19:36:06.800,21.785332,39.05941,19.19,3106,532,16888,29,29,-7,-80.73,-12.71,-6.35,16057.848174646564,0.001686
761,1900-01-01 19:36:07.000,21.785345,39.059425,23.27,2080,454,15344,-16,-44,-2,-80.91,-12.09,-5.29,16827.983717605624,0.002119
762,1900-01-01 19:36:07.200,21.785358,39.059444,27.51,1672,434,15826,-15,-20,-5,-81.01,-11.5,-4.69,16828.51140178477,0.002437
763,1900-01-01 19:36:07.400,21.785378,39.059464,31.88,2346,244,16658,-5,10,-3,-81.09,-11.05,-4.18,16366.824249071657,0.003035
764,1900-01-01 19:36:07.600,21.785389,39.059479,33.17,2732,594,17528,4,32,-2,-81.17,-10.7,-3.7,16362.888375833894,0.001974
765,1900-01-01 19:36:07.700,21.785397,39.05949,33.55,2638,-210,16192,-5,1,0,-81.24,-10.42,-3.25,16663.184929658557,0.001443
766,1900-01-01 19:36:07.900,21.785408,39.059505,33.94,2302,200,16080,-2,10,3,-81.35,-10.12,-2.82,16657.145133545546,0.001974
767,1900-01-01 19:36:08.200,21.785425,39.059528,36.37,1304,-208,16496,10,-7,12,-81.52,-9.76,-2.44,16245.754645445068,0.003035
768,1900-01-01 19:36:08.400,21.785439,39.059547,37.97,1020,-944,16694,-4,-3,8,-81.68,-9.01,-2.15,16547.568764020896,0.002504
769,1900-01-01 19:36:08.700,21.785458,39.059574,39.6,1112,122,15492,13,20,15,-81.81,-8.52,-1.83,16744.95900263718,0.003498
770,1900-01-01 19:36:08.900,21.785471,39.059593,39.84,2306,-60,17242,10,2,9,-82.0,-8.06,-1.53,16831.046313286646,0.002437
771,1900-01-01 19:36:09.100,21.785484,39.059608,40.66,2140,474,16824,1,3,12,-82.2,-7.48,-1.27,16959.995872641008,0.002119
772,1900-01-01 19:36:09.300,21.7855,39.059628,41.13,2346,168,16280,-25,-21,12,-82.39,-6.87,-1.19,16959.663204203083,0.002726
773,1900-01-01 19:36:09.600,21.785519,39.059658,41.79,490,-468,17340,-4,-2,12,-82.55,-6.49,-1.25,16305.263199347626,0.003749
774,1900-01-01 19:36:09.800,21.785534,39.059677,42.19,898,-204,15212,16,0,7,-82.72,-6.45,-1.15,16305.263199347626,0.002575
775,1900-01-01 19:36:10.100,21.785555,39.059704,42.98,902,-98,16106,-6,-24,3,-82.8,-6.2,-0.8,16910.35789094956,0.003637
776,1900-01-01 19:36:10.300,21.78557,39.059723,43.45,1918,876,16886,-10,0,5,-82.83,-6.11,-0.71,16142.159211208394,0.002575
777,1900-01-01 19:36:10.500,21.785583,39.059742,44.08,2228,-66,17120,-6,21,-1,-82.85,-5.95,-0.7,16786.10067883545,0.002437
778,1900-01-01 19:36:10.700,21.785599,39.059765,44.68,948,-316,16114,-5,-18,-1,-82.84,-5.78,-0.7,16786.067317868114,0.002967
779,1900-01-01 19:36:10.900,21.785614,39.059784,44.99,2306,-74,16676,-16,21,0,-82.86,-5.69,-0.65,16146.419788919153,0.002575
780,1900-01-01 19:36:11.100,21.785629,39.059803,45.87,528,112,14132,-21,4,0,-82.86,-5.57,-0.67,16143.443746611192,0.002575
781,1900-01-01 19:36:11.300,21.785645,39.059826,47.11,1020,-226,14868,-5,-16,-1,-82.86,-5.56,-0.69,16393.929364249438,0.002967
782,1900-01-01 19:36:11.500,21.78566,39.059845,46.93,664,-352,16362,-9,-34,0,-82.85,-5.35,-0.62,16395.320063969473,0.002575
783,1900-01-01 19:36:11.700,21.785675,39.059868,47.02,1560,110,17336,-5,23,-3,-82.82,-5.26,-0.61,16439.968004835046,0.002902
784,1900-01-01 19:36:11.800,21.785683,39.059879,47.17,1624,-606,17084,4,28,0,-82.81,-5.26,-0.57,16439.968004835046,0.001443
785,1900-01-01 19:36:12.000,21.7857,39.059898,48.06,1684,-382,14606,14,-2,-4,-82.79,-5.14,-0.53,15775.568072180475,0.002724
786,1900-01-01 19:36:12.200,21.785715,39.059921,48.64,1134,298,15698,19,15,2,-82.77,-4.86,-0.37,14947.338090777233,0.002902
787,1900-01-01 19:36:12.400,21.78573,39.059944,49.36,620,-88,14214,14,-6,3,-82.77,-4.76,-0.24,14947.951565348343,0.002902
788,1900-01-01 19:36:12.600,21.785748,39.059967,49.88,362,854,14904,9,-21,1,-82.78,-4.76,0.1,15371.789876263596,0.003106
789,1900-01-01 19:36:12.700,21.785757,39.059978,50.06,1106,348,19984,15,-2,-3,-82.76,-4.57,0.33,15359.235527850988,0.001514
790,1900-01-01 19:36:12.900,21.785772,39.060001,50.46,1152,544,15328,-2,16,-2,-82.76,-4.63,0.39,15378.5661230168,0.002902
791,1900-01-01 19:36:13.100,21.785789,39.06002,51.15,814,574,18016,39,12,0,-82.75,-4.45,0.49,17008.76773902213,0.002724
792,1900-01-01 19:36:13.400,21.785814,39.060055,51.84,2556,1624,15220,-11,81,2,-82.75,-4.63,0.71,15381.942790167957,0.004559
793,1900-01-01 19:36:13.600,21.785831,39.060078,52.24,2306,1840,16960,41,29,10,-82.78,-4.54,0.52,15254.297492837879,0.003035
794,1900-01-01 19:36:13.800,21.785847,39.060104,52.6,846,-1094,14838,16,-32,1,-82.82,-4.43,0.67,15243.664257651439,0.003221
795,1900-01-01 19:36:14.100,21.785873,39.060139,53.25,138,-536,14316,-42,-34,1,-82.83,-3.65,0.71,16288.464261556397,0.004628
796,1900-01-01 19:36:14.300,21.785891,39.060162,54.58,740,-72,16868,-13,12,3,-82.88,-3.66,0.48,14960.486222045058,0.003106
797,1900-01-01 19:36:14.500,21.785908,39.060184,54.62,772,156,16270,-9,-32,0,-82.89,-3.75,0.41,16281.29601720944,0.002955
798,1900-01-01 19:36:14.700,21.785925,39.060211,54.74,590,140,14942,-6,2,4,-82.93,-3.83,0.42,16879.036109920497,0.003368
799,1900-01-01 19:36:14.900,21.785944,39.060234,54.88,202,196,16998,-6,-24,2,-82.95,-3.62,0.31,16272.517813786531,0.003179
800,1900-01-01 19:36:15.100,21.785961,39.060257,55.38,-652,316,18244,8,-21,0,-82.99,-3.25,0.31,17000.82409767244,0.003035
801,1900-01-01 19:36:15.300,21.78598,39.060284,55.72,240,-82,14456,5,-17,3,-83.01,-3.31,0.37,17000.82409767244,0.003498
802,1900-01-01 19:36:15.500,21.785997,39.060307,55.95,988,622,17620,-17,4,1,-83.04,-3.13,0.42,17635.29529097826,0.003035
803,1900-01-01 19:36:15.700,21.786016,39.060333,56.2,722,-234,15658,-12,-8,1,-83.06,-3.14,0.25,16150.702647253462,0.003416
804,1900-01-01 19:36:16.000,21.786043,39.060368,56.6,786,134,17780,23,-9,0,-83.06,-3.05,0.22,16153.776276771943,0.004698
805,1900-01-01 19:36:16.200,21.786062,39.060394,56.88,244,328,16134,20,3,3,-83.09,-3.07,0.32,15740.296439394018,0.003416
806,1900-01-01 19:36:16.400,21.786079,39.060417,56.99,1224,144,15720,-1,2,-1,-83.12,-3.05,0.49,16081.443840650627,0.003035
807,1900-01-01 19:36:16.600,21.786098,39.060444,57.36,1506,510,14720,-27,-11,2,-83.13,-2.9,0.5,16088.684470770131,0.003498
808,1900-01-01 19:36:16.800,21.786118,39.060467,57.56,928,-626,16054,-4,17,5,-83.18,-2.85,0.34,15755.419765909126,0.003254
809,1900-01-01 19:36:17.000,21.786137,39.060493,57.96,1046,-92,16958,7,-1,4,-83.21,-2.89,0.25,16082.067777496773,0.003416
810,1900-01-01 19:36:17.300,21.786165,39.060532,57.89,672,202,15640,-28,11,5,-83.28,-2.79,0.25,16244.768265506284,0.00509
811,1900-01-01 19:36:17.500,21.786182,39.060555,58.1,816,468,17562,-14,-15,3,-83.33,-2.75,0.23,16971.569874351637,0.003035
812,1900-01-01 19:36:17.700,21.786201,39.060581,58.35,332,-124,16224,3,-26,1,-83.36,-2.65,0.15,16234.422934000457,0.003416
813,1900-01-01 19:36:17.900,21.786221,39.060608,59.04,276,94,18294,19,20,5,-83.4,-2.52,0.14,16834.051443428583,0.003566
814,1900-01-01 19:36:18.100,21.78624,39.060635,59.27,574,-578,15360,-16,-7,1,-83.46,-2.76,0.28,16363.307611849139,0.003498
815,1900-01-01 19:36:18.400,21.786268,39.060673,59.82,1058,144,16824,-5,3,6,-83.51,-2.61,0.31,16368.337606488938,0.005009
816,1900-01-01 19:36:18.600,21.786289,39.060699,60.54,406,518,16358,-10,-37,-1,-83.53,-2.53,0.32,16249.024832278397,0.003558
817,1900-01-01 19:36:18.800,21.786308,39.060726,60.98,840,-722,16236,-24,2,4,-83.53,-2.37,0.06,16378.576372810916,0.003498
818,1900-01-01 19:36:18.900,21.786318,39.060738,61.03,368,-306,15154,10,17,1,-83.55,-2.3,0.01,16264.343946191006,0.001665
819,1900-01-01 19:36:19.100,21.786339,39.060764,61.18,808,842,17778,-4,39,1,-83.56,-2.33,0.06,16171.0977982325,0.003558
820,1900-01-01 19:36:19.300,21.786358,39.060791,61.53,1492,838,16148,-43,-29,-5,-83.56,-2.7,0.07,16171.0977982325,0.003498
821,1900-01-01 19:36:19.500,21.786377,39.060818,61.44,184,-564,15764,-14,-22,-4,-83.52,-2.31,-0.22,16639.60107694893,0.003498
822,1900-01-01 19:36:19.700,21.786398,39.060844,62.15,1604,-602,17034,-5,-6,-2,-83.5,-2.48,-0.35,16407.889443801112,0.003558
823,1900-01-01 19:36:19.800,21.786407,39.06086,62.3,674,256,16618,-13,-15,-4,-83.49,-2.35,-0.25,16404.109363205305,0.001932
824,1900-01-01 19:36:20.000,21.786428,39.060886,62.26,766,346,16388,2,-7,-4,-83.45,-2.28,-0.19,16637.614492468565,0.003558
825,1900-01-01 19:36:20.200,21.786448,39.060913,62.42,490,-272,14472,10,-44,-8,-83.39,-2.03,0.03,16403.85186472982,0.003566
826,1900-01-01 19:36:20.400,21.786467,39.06094,62.67,900,1250,19704,-14,102,-5,-83.34,-1.89,0.27,16395.734201309802,0.003498
827,1900-01-01 19:36:20.600,21.786488,39.060966,62.69,-36,116,15640,-22,-46,-10,-83.28,-2.26,0.1,15648.103910697935,0.003558
828,1900-01-01 19:36:20.700,21.786497,39.060978,62.7,-258,50,17458,7,29,-5,-83.19,-1.96,0.16,16118.29544337738,0.001593
829,1900-01-01 19:36:20.900,21.786518,39.061005,62.99,1514,758,15376,-10,16,-13,-83.12,-2.12,0.33,16100.880100168437,0.003637
830,1900-01-01 19:36:21.100,21.786537,39.061035,63.02,122,1164,16100,1,-60,-6,-83.05,-1.69,0.4,16404.901950331798,0.003749
831,1900-01-01 19:36:21.300,21.786556,39.061062,63.05,1818,-258,16400,-5,-4,-7,-82.94,-1.22,0.42,16214.15998440869,0.003498
832,1900-01-01 19:36:21.400,21.786566,39.061073,63.12,-630,382,17622,-33,-13,-6,-82.89,-1.12,0.48,16204.37730985057,0.001589
833,1900-01-01 19:36:21.600,21.786587,39.0611,63.13,1366,-404,16152,7,6,-3,-82.83,-1.18,0.3,16204.37730985057,0.003637
834,1900-01-01 19:36:21.800,21.786606,39.061127,62.99,1276,-396,15866,46,-8,-7,-82.77,-1.25,0.55,16161.934661419715,0.003498
835,1900-01-01 19:36:21.900,21.786615,39.061142,62.97,-456,540,15470,1,4,-9,-82.65,-0.74,1.03,15876.132274581238,0.001844
836,1900-01-01 19:36:22.100,21.786634,39.061169,62.98,462,328,17038,-29,28,-5,-82.61,-0.76,1.08,15872.72515984574,0.003498
837,1900-01-01 19:36:22.300,21.786655,39.061195,62.92,548,-146,14730,-14,-20,-8,-82.52,-0.84,0.84,16095.350011726989,0.003558
838,1900-01-01 19:36:22.500,21.786674,39.061222,62.85,-568,2,16088,9,-6,-8,-82.4,-0.41,0.81,16094.63239716894,0.003498
839,1900-01-01 19:36:22.600,21.786684,39.061237,62.89,752,152,17116,13,24,-1,-82.37,-0.47,0.91,16090.199004362874,0.001907
840,1900-01-01 19:36:22.800,21.786703,39.061264,62.95,-286,-252,15980,1,4,-5,-82.37,-0.61,0.97,16196.897727651429,0.003498
841,1900-01-01 19:36:23.000,21.786722,39.061291,63.43,-266,344,16638,-15,46,2,-82.36,-0.66,0.82,16354.497607691897,0.003498
842,1900-01-01 19:36:23.200,21.786741,39.061317,63.47,382,304,16194,-10,-55,-5,-82.33,-0.81,0.54,16350.041712485017,0.003416
843,1900-01-01 19:36:23.400,21.786762,39.061348,63.43,562,258,16348,-1,23,3,-82.31,-0.42,0.37,16350.041712485017,0.003962
844,1900-01-01 19:36:23.500,21.786772,39.061359,63.51,14,-306,16780,-4,-8,2,-82.34,-0.51,0.24,16350.041712485017,0.001589
845,1900-01-01 19:36:23.700,21.786791,39.061386,63.48,-166,-494,14632,32,-4,1,-82.34,-0.41,0.24,16781.98915504357,0.003498
846,1900-01-01 19:36:23.900,21.78681,39.061417,63.35,-330,666,18158,4,21,3,-82.38,-0.37,0.51,16781.221648020743,0.003835
847,1900-01-01 19:36:24.100,21.786829,39.061443,63.44,168,696,18290,-11,3,2,-82.42,-0.58,0.44,17016.470609383134,0.003416
848,1900-01-01 19:36:24.300,21.786848,39.06147,63.5,442,202,15892,-10,6,6,-82.48,-0.61,0.14,17016.470609383134,0.003498
849,1900-01-01 19:36:24.500,21.786867,39.061497,63.77,478,352,17012,-1,-23,4,-82.56,-0.52,-0.16,16282.1198865504,0.003498
850,1900-01-01 19:36:24.700,21.786888,39.061523,63.76,-102,-992,16280,13,6,4,-82.63,-0.39,-0.34,16286.533946791747,0.003558
851,1900-01-01 19:36:24.900,21.786907,39.061554,63.78,-540,-610,14638,-17,-19,-1,-82.64,-0.29,-0.17,17023.23846980944,0.003835
852,1900-01-01 19:36:25.100,21.786926,39.061581,63.89,842,-132,17198,-30,18,3,-82.66,-0.25,-0.22,16293.37006269728,0.003498
853,1900-01-01 19:36:25.400,21.786957,39.061623,63.75,-118,-652,17218,-22,-34,1,-82.69,-0.38,-0.67,16411.76480455408,0.00554
854,1900-01-01 19:36:25.600,21.786976,39.061649,63.83,100,-1046,15720,19,25,11,-82.79,-0.35,-0.92,16856.14143272416,0.003416
855,1900-01-01 19:36:25.900,21.787004,39.061691,63.8,-780,-360,16400,-2,4,7,-82.89,-0.27,-0.73,16856.14143272416,0.005339
856,1900-01-01 19:36:26.100,21.787025,39.061718,63.61,258,356,16852,7,-7,7,-83.0,-0.4,-0.65,16404.255545436983,0.003637
857,1900-01-01 19:36:26.300,21.787045,39.061745,63.65,178,242,16860,8,24,6,-83.06,-0.38,-0.62,16855.925011698408,0.003566
858,1900-01-01 19:36:26.500,21.787064,39.061771,63.71,-430,-564,14596,16,-32,4,-83.12,-0.37,-0.64,16853.81772774347,0.003416
859,1900-01-01 19:36:26.700,21.787085,39.061798,63.77,52,-488,17314,17,8,4,-83.18,-0.11,-0.42,16806.508858177538,0.003637
860,1900-01-01 19:36:26.900,21.787104,39.061829,63.69,-214,542,16350,-11,3,2,-83.23,-0.22,-0.2,16807.642309378196,0.003835
861,1900-01-01 19:36:27.100,21.787123,39.061855,63.78,214,-120,16806,-20,-10,0,-83.23,-0.13,-0.35,16857.14103874082,0.003416
862,1900-01-01 19:36:27.300,21.787144,39.061882,63.79,-202,944,16852,30,26,1,-83.24,-0.1,-0.43,16857.14103874082,0.003637
863,1900-01-01 19:36:27.500,21.787163,39.061909,63.65,-512,364,17516,3,24,-1,-83.22,-0.04,-0.31,16855.964997590614,0.003498
864,1900-01-01 19:36:27.700,21.787182,39.061935,63.76,34,24,17624,5,0,-2,-83.2,-0.34,-0.28,17519.814725047752,0.003416
865,1900-01-01 19:36:27.900,21.787203,39.061962,64.0,154,852,16558,16,-12,-7,-83.15,-0.23,-0.19,17516.04944044176,0.003637
866,1900-01-01 19:36:28.100,21.787222,39.061989,64.15,130,-298,18908,5,4,-3,-83.08,-0.02,0.02,16899.127788143385,0.003498
867,1900-01-01 19:36:28.300,21.787243,39.062019,64.13,-176,-584,16896,-6,27,-4,-83.07,-0.35,0.09,16562.629018365413,0.003879
868,1900-01-01 19:36:28.500,21.787262,39.062046,64.19,280,-360,15862,-11,-25,-4,-83.04,-0.27,0.15,16794.362149245204,0.003498
869,1900-01-01 19:36:28.600,21.787271,39.062057,64.26,198,-948,15636,15,-49,0,-83.02,0.08,0.18,16592.839419460433,0.001514
870,1900-01-01 19:36:28.800,21.787292,39.062088,64.28,-460,298,16790,-16,75,7,-83.06,0.13,0.35,15864.366485933184,0.003962
871,1900-01-01 19:36:29.000,21.787312,39.062115,64.32,-184,-124,16588,-37,5,1,-83.09,-0.4,0.17,15638.400685492106,0.003566
872,1900-01-01 19:36:29.200,21.787333,39.062141,64.35,-166,-218,12958,-17,-18,-3,-83.07,-0.17,-0.21,16589.294017528293,0.003558
873,1900-01-01 19:36:29.300,21.787342,39.062157,64.52,-150,-812,14574,-2,-67,-4,-83.05,0.13,-0.29,16589.141629391197,0.001932
874,1900-01-01 19:36:29.500,21.787361,39.062183,64.52,102,144,18452,43,27,1,-83.04,0.49,-0.1,16656.322042996166,0.003416
875,1900-01-01 19:36:29.700,21.78738,39.06221,64.6,720,520,17652,18,19,2,-83.07,0.06,0.21,16656.322042996166,0.003498
876,1900-01-01 19:36:29.800,21.787392,39.062225,64.6,762,18,16656,0,-21,1,-83.11,-0.17,0.34,16656.322042996166,0.002044
877,1900-01-01 19:36:30.000,21.787411,39.062252,64.76,-518,-112,15954,-12,36,3,-83.13,-0.11,0.32,15956.063925667884,0.003498
878,1900-01-01 19:36:30.200,21.78743,39.062283,64.45,-532,-302,14104,1,-10,4,-83.17,-0.42,0.18,15962.417235494127,0.003835
879,1900-01-01 19:36:30.400,21.787451,39.062309,64.42,256,496,15742,8,-9,1,-83.2,-0.24,0.19,15908.87324734219,0.003558
880,1900-01-01 19:36:30.600,21.78747,39.062336,64.21,-832,118,17554,15,-33,1,-83.22,-0.15,0.17,15902.498545826062,0.003498
881,1900-01-01 19:36:30.700,21.787479,39.062351,64.18,774,406,15900,-25,24,3,-83.26,-0.49,0.14,16191.72492355277,0.001844
882,1900-01-01 19:36:30.900,21.7875,39.062378,64.44,292,78,16184,-38,-48,-5,-83.25,-0.44,-0.05,16187.064094516954,0.003637
883,1900-01-01 19:36:31.100,21.787519,39.062405,64.27,626,512,16586,-12,19,-1,-83.23,-0.32,-0.43,16188.156287854401,0.003498
884,1900-01-01 19:36:31.300,21.78754,39.062431,64.45,-1010,-354,15510,34,-9,1,-83.22,-0.35,-0.52,16587.523383555486,0.003558
885,1900-01-01 19:36:31.500,21.78756,39.062462,64.71,-120,222,16918,38,28,2,-83.24,-0.42,-0.2,16919.679665998407,0.003898
886,1900-01-01 19:36:31.700,21.78758,39.062489,64.62,90,206,18258,8,-35,2,-83.25,-0.42,0.11,17617.652170479472,0.003566
887,1900-01-01 19:36:31.800,21.78759,39.0625,64.58,-356,44,17882,5,7,3,-83.26,-0.22,0.16,17614.463715935264,0.001589
888,1900-01-01 19:36:32.000,21.787609,39.062531,64.69,-622,-154,17614,1,14,3,-83.27,-0.23,0.23,17717.81002268621,0.003835
889,1900-01-01 19:36:32.200,21.78763,39.062557,64.71,4,-440,16022,-12,-5,-1,-83.28,-0.38,0.22,17615.82050317271,0.003558
890,1900-01-01 19:36:32.400,21.787651,39.062584,64.84,-230,-106,17716,4,2,0,-83.28,-0.29,0.16,16815.907112017478,0.003637
891,1900-01-01 19:36:32.600,21.78767,39.062611,65.02,-182,154,16410,-14,11,1,-83.29,-0.33,0.14,16499.72254312175,0.003498
892,1900-01-01 19:36:32.800,21.787691,39.062641,65.12,-910,686,16814,4,-39,-1,-83.32,-0.43,0.1,16499.72254312175,0.003879
893,1900-01-01 19:36:33.000,21.787712,39.062668,65.37,830,322,16498,-7,23,1,-83.33,-0.37,0.01,16411.731779431444,0.003637
894,1900-01-01 19:36:33.200,21.787731,39.062695,65.25,204,-626,16150,-14,-16,3,-83.35,-0.37,-0.15,16158.81703590953,0.003498
895,1900-01-01 19:36:33.400,21.787752,39.062725,65.27,-640,-192,15284,-20,-3,0,-83.35,-0.34,-0.25,15995.240667148462,0.003879
896,1900-01-01 19:36:33.600,21.787773,39.062752,65.39,-498,-218,15986,6,24,1,-83.35,-0.31,-0.34,15953.2649949783,0.003637
897,1900-01-01 19:36:33.800,21.787792,39.062778,65.28,-804,-690,15944,-5,11,3,-83.38,-0.42,-0.34,15826.44836973855,0.003416
898,1900-01-01 19:36:34.000,21.787813,39.062805,65.19,42,-44,14526,-12,-18,2,-83.4,-0.53,-0.37,15838.42972014587,0.003637
899,1900-01-01 19:36:34.200,21.787832,39.062836,65.25,-1046,-436,15812,3,-12,-4,-83.37,-0.05,-0.36,15852.556765392768,0.003835
900,1900-01-01 19:36:34.400,21.787853,39.062862,65.4,-6390,-988,15652,-7,-43,-6,-83.29,2.11,-0.3,16898.606569773732,0.003558
901,1900-01-01 19:36:34.600,21.787874,39.062889,65.43,-5958,-214,17154,7,-26,-10,-83.21,4.79,-0.21,17289.59201369425,0.003637
902,1900-01-01 19:36:34.800,21.787895,39.062916,65.42,-6918,454,16064,15,-23,-8,-83.14,7.16,-0.03,18362.712326886787,0.003637
903,1900-01-01 19:36:35.000,21.787914,39.062946,65.2,-6836,-28,17706,7,-19,-8,-83.07,9.24,0.02,18362.712326886787,0.003749
904,1900-01-01 19:36:35.200,21.787935,39.062973,64.61,-6552,782,18010,11,7,-7,-83.03,11.12,0.13,18183.479644996445,0.003637
905,1900-01-01 19:36:35.400,21.787954,39.063,63.75,-5950,-202,16876,-18,12,-3,-82.99,12.6,0.13,18409.649317681204,0.003498
906,1900-01-01 19:36:35.500,21.787964,39.063015,63.25,-6150,-270,16962,-4,9,0,-83.02,13.45,0.01,18341.91985589295,0.001907
907,1900-01-01 19:36:35.700,21.787983,39.063042,62.48,-4672,616,17352,-7,11,1,-83.06,14.38,-0.04,17593.693529216656,0.003498
908,1900-01-01 19:36:35.900,21.788002,39.063068,61.55,-30,32,17350,2,35,6,-83.08,12.7,-0.09,16989.628954159063,0.003416
909,1900-01-01 19:36:36.100,21.788021,39.063091,60.11,-968,40,16004,3,0,2,-83.09,11.13,-0.13,16780.3667421186,0.003179
910,1900-01-01 19:36:36.300,21.788038,39.063118,57.54,236,-46,16666,0,-1,3,-83.09,9.91,-0.13,16672.057701435657,0.003368
911,1900-01-01 19:36:36.500,21.788054,39.063141,55.84,-280,-420,16778,-4,0,5,-83.1,8.52,-0.15,16667.718860120003,0.002967
912,1900-01-01 19:36:36.700,21.788069,39.06316,52.0,446,520,16672,11,-4,-1,-83.11,6.95,-0.14,16671.038479950792,0.002575
913,1900-01-01 19:36:36.900,21.788084,39.063179,49.03,590,132,16034,4,9,3,-83.12,5.59,-0.14,16677.22470916549,0.002575
914,1900-01-01 19:36:37.200,21.788103,39.06321,46.16,388,468,16194,-7,-12,2,-83.13,4.44,-0.01,16200.678257406385,0.003835
915,1900-01-01 19:36:37.400,21.788118,39.063229,45.82,396,106,17172,1,10,3,-83.14,3.52,-0.08,16039.239632850431,0.002575
916,1900-01-01 19:36:37.600,21.788134,39.063248,46.02,872,22,14836,-17,13,4,-83.18,2.58,-0.1,16199.187880878473,0.002648
917,1900-01-01 19:36:37.800,21.788147,39.063267,45.96,262,-356,15728,-9,8,-1,-83.17,1.68,-0.15,17194.45271010392,0.002437
918,1900-01-01 19:36:38.100,21.78817,39.063297,46.15,1046,240,18208,7,-9,-2,-83.16,1.0,-0.19,15762.759403099446,0.004017
919,1900-01-01 19:36:38.300,21.788183,39.063316,46.29,1298,108,17224,7,-23,-1,-83.14,0.12,-0.15,17119.43795806393,0.002437
920,1900-01-01 19:36:38.500,21.788198,39.063335,46.46,1064,-2,15560,9,12,-1,-83.09,-0.23,-0.02,17119.43795806393,0.002575
921,1900-01-01 19:36:38.800,21.788221,39.063366,46.87,2310,558,17086,-8,53,-1,-83.06,-1.0,0.21,15614.045215766477,0.004097
922,1900-01-01 19:36:39.000,21.788235,39.063385,47.19,-232,-72,14966,10,-10,-2,-82.99,-1.34,0.13,15644.649948145212,0.002504
923,1900-01-01 19:36:39.300,21.788258,39.063416,47.78,1624,-656,14466,14,21,-1,-82.99,-1.72,0.28,16040.58365521654,0.004097
924,1900-01-01 19:36:39.600,21.78828,39.063446,48.2,1656,-64,16840,-20,23,-2,-82.96,-1.56,0.46,14994.244495805715,0.003947
925,1900-01-01 19:36:39.900,21.788303,39.063477,48.16,828,-104,15958,14,6,1,-82.98,-1.98,0.29,15997.609071358132,0.004097
926,1900-01-01 19:36:40.200,21.788326,39.063507,48.62,914,-1510,13572,-9,40,52,-83.54,-1.93,-0.63,16010.722781935861,0.004017
927,1900-01-01 19:36:40.500,21.788349,39.063541,49.26,-712,-980,17508,2,29,44,-84.39,-1.75,-1.42,15733.65437525561,0.004343
928,1900-01-01 19:36:40.900,21.788382,39.063583,50.23,1360,-922,15680,26,5,43,-85.22,-2.43,-2.01,15736.393614802599,0.005681
929,1900-01-01 19:36:41.200,21.788404,39.063614,50.79,960,1850,12092,16,-11,-9,-85.69,-2.0,-1.16,15791.646525932627,0.004029
930,1900-01-01 19:36:41.500,21.788429,39.063644,51.07,6926,2826,21462,-39,127,-27,-85.35,-1.97,0.45,15791.646525932627,0.004162
931,1900-01-01 19:36:41.700,21.788446,39.063667,51.23,-928,1610,15238,-25,-41,-35,-84.92,-2.01,0.84,16259.208098797431,0.003035
932,1900-01-01 19:36:42.000,21.788471,39.063698,51.23,748,970,17570,-7,0,-32,-84.29,-1.9,1.11,17023.85538002482,0.004239
933,1900-01-01 19:36:42.300,21.788496,39.063728,51.7,550,1014,16162,4,-11,-30,-83.67,-1.67,1.52,16195.411078450587,0.004162
934,1900-01-01 19:36:42.600,21.788523,39.063759,51.69,-412,1316,16964,-1,-6,-27,-83.14,-1.53,2.07,16879.463854044654,0.004388
935,1900-01-01 19:36:42.900,21.788548,39.063793,52.96,230,874,15646,-5,4,-30,-82.57,-1.53,2.41,16187.248685307828,0.004478
936,1900-01-01 19:36:43.200,21.788572,39.063828,52.97,-454,684,16850,-4,-26,-8,-82.28,-1.39,2.17,16496.352809030242,0.004492
937,1900-01-01 19:36:43.500,21.788597,39.063862,53.33,668,660,15946,-11,14,-4,-82.19,-1.44,1.8,16478.828720512876,0.004478
938,1900-01-01 19:36:43.800,21.788622,39.063892,53.15,74,-58,16482,-9,-4,-2,-82.12,-1.39,1.33,16486.76293272879,0.004162
939,1900-01-01 19:36:44.000,21.788639,39.063915,53.26,664,-208,16464,7,-6,6,-82.16,-1.35,1.05,16472.37517785459,0.003035
940,1900-01-01 19:36:44.300,21.788664,39.06395,53.88,392,-460,18114,-3,41,5,-82.24,-1.17,0.81,16468.823394523362,0.004559
941,1900-01-01 19:36:44.600,21.788687,39.063984,54.08,522,170,15312,-9,-30,-2,-82.3,-1.4,0.58,16396.496820967583,0.004343
942,1900-01-01 19:36:44.800,21.788704,39.064007,54.13,374,-72,16352,-3,24,2,-82.31,-1.16,0.37,16356.856421696682,0.003035
943,1900-01-01 19:36:45.100,21.788729,39.064045,54.41,412,-758,16390,-3,3,2,-82.35,-1.3,0.19,16356.570056096725,0.004809
944,1900-01-01 19:36:45.300,21.788746,39.064068,54.4,-406,98,15888,8,-21,5,-82.41,-1.24,0.08,16353.541267872228,0.003035
945,1900-01-01 19:36:45.600,21.788769,39.064102,54.25,-208,128,16384,19,6,5,-82.48,-1.04,0.11,15889.58627529364,0.004343
946,1900-01-01 19:36:45.800,21.788786,39.064125,54.4,-202,132,15188,5,-16,2,-82.53,-1.0,0.2,15889.58627529364,0.003035
947,1900-01-01 19:36:46.100,21.788811,39.064159,54.59,148,96,15870,-10,4,1,-82.57,-0.99,0.31,15870.999212399955,0.004478
948,1900-01-01 19:36:46.300,21.788828,39.064182,54.6,508,-592,15914,15,-16,-3,-82.56,-0.76,0.17,15870.980436003316,0.003035
949,1900-01-01 19:36:46.500,21.788845,39.064205,54.66,-150,-198,15296,12,32,4,-82.6,-0.74,0.22,15914.977725400686,0.003035
950,1900-01-01 19:36:46.800,21.78887,39.06424,54.76,802,494,16622,-3,-9,2,-82.63,-0.92,0.35,16249.10606771954,0.004559
951,1900-01-01 19:36:47.000,21.788887,39.064262,55.14,-404,450,16248,2,11,1,-82.64,-0.72,0.35,16252.7322010793,0.002955
952,1900-01-01 19:36:47.200,21.788904,39.064285,55.4,-130,138,16718,9,-5,-2,-82.65,-0.8,0.33,16626.120533666293,0.003035
953,1900-01-01 19:36:47.300,21.788914,39.064301,55.33,10,370,16116,20,4,1,-82.66,-0.8,0.3,16248.589107981037,0.001991
954,1900-01-01 19:36:47.500,21.788931,39.064323,55.24,730,-184,18506,2,-12,-2,-82.66,-0.84,0.43,16116.87873007674,0.002955
955,1900-01-01 19:36:47.700,21.788946,39.064346,55.4,844,-168,14856,-29,1,-3,-82.66,-0.85,0.42,16117.053452787206,0.002902
956,1900-01-01 19:36:47.900,21.788963,39.064369,55.34,-974,-824,15146,-25,-3,1,-82.64,-0.61,0.21,16890.04132617798,0.003035
957,1900-01-01 19:36:48.100,21.78898,39.064392,55.46,-820,-328,16884,-17,-2,-1,-82.65,-0.63,0.0,16330.248497803088,0.003035
958,1900-01-01 19:36:48.200,21.78899,39.064404,55.36,402,-206,18362,9,3,2,-82.65,-0.48,-0.2,16338.314356138457,0.001665
959,1900-01-01 19:36:48.400,21.789007,39.06443,55.44,496,182,16324,15,20,1,-82.66,-0.55,-0.15,16888.127664131393,0.003283
960,1900-01-01 19:36:48.600,21.789024,39.064453,55.49,-652,302,15766,-2,5,0,-82.64,-0.2,0.01,17187.74575097037,0.003035
961,1900-01-01 19:36:48.800,21.789042,39.064476,55.3,-326,336,17182,25,-16,3,-82.66,-0.11,0.12,17197.01811361493,0.003106
962,1900-01-01 19:36:48.900,21.789049,39.064487,55.29,-3012,684,18246,14,-16,-3,-82.68,0.51,0.34,17447.23943780219,0.001377
963,1900-01-01 19:36:49.100,21.789066,39.06451,55.27,-6630,-392,18002,16,3,-6,-82.63,2.75,0.46,18184.200724805036,0.003035
964,1900-01-01 19:36:49.300,21.789083,39.064533,55.23,-5944,662,16072,2,-74,-6,-82.61,5.96,0.7,18077.980528809076,0.003035
965,1900-01-01 19:36:49.500,21.789101,39.064556,55.28,-7026,106,17070,-23,-3,-6,-82.57,8.84,0.66,18076.675911239876,0.003106
966,1900-01-01 19:36:49.700,21.789118,39.064579,54.88,-5922,312,15812,-20,16,-1,-82.58,10.18,0.52,18069.453782558012,0.003035
967,1900-01-01 19:36:49.800,21.789127,39.06459,54.67,-5494,224,17286,-10,4,3,-82.62,11.56,0.38,17933.742275386918,0.001514
968,1900-01-01 19:36:50.000,21.789143,39.064613,54.49,-598,-160,17116,-4,44,5,-82.67,11.55,0.15,16115.650157533204,0.002967
969,1900-01-01 19:36:50.200,21.78916,39.064636,53.63,-86,392,16098,-11,20,3,-82.68,9.92,0.1,16110.39490515363,0.003035
970,1900-01-01 19:36:50.300,21.789167,39.064648,52.71,-720,-294,16022,1,5,2,-82.68,9.08,0.06,16024.17498656327,0.001463
971,1900-01-01 19:36:50.500,21.789183,39.064671,51.6,128,204,15454,21,-2,3,-82.69,7.99,0.12,16024.674723687842,0.002967
972,1900-01-01 19:36:50.700,21.789198,39.06469,49.71,-210,-408,15926,6,-34,1,-82.7,7.43,0.25,16024.277955652167,0.002575
973,1900-01-01 19:36:50.800,21.789206,39.064701,48.83,-384,212,16942,3,45,3,-82.7,6.67,0.32,16039.411709910062,0.001443
974,1900-01-01 19:36:51.000,21.789219,39.06472,46.79,294,170,16278,-14,-4,0,-82.7,5.14,0.3,16241.551034307038,0.002437
975,1900-01-01 19:36:51.200,21.789232,39.064739,44.5,452,16,16038,-3,-22,0,-82.69,4.55,0.2,16285.161589618938,0.002437
976,1900-01-01 19:36:51.300,21.789238,39.064747,43.2,832,442,16238,-17,-13,1,-82.66,3.98,0.18,16246.984335562092,0.001062
