Counter,Time,Latitude,Longitude,Speed(km/h),Ax,Ay,Az,Gx,Gy,Gz,Yaw,Pitch,Roll,acceleration_magnitude,distance
1,1900-01-01 19:27:25.500,21.787792,39.069153,0.0,86,100,16456,2,-1,0,0.01,-0.02,0.42,0.0,0.0
2,1900-01-01 19:27:33.000,21.787788,39.069153,0.0,42,58,16776,3,0,0,0.01,-0.01,0.37,0.0,0.000445
3,1900-01-01 19:27:33.200,21.787788,39.069153,0.0,-96,-116,16700,-2,2,0,0.01,-0.01,0.33,16696.38547710252,0.0
4,1900-01-01 19:27:33.300,21.787788,39.069153,0.0,186,226,16118,-1,-1,0,0.01,-0.01,0.27,16696.38547710252,0.0
5,1900-01-01 19:27:33.500,21.787788,39.069153,0.0,74,86,16696,2,-1,1,0.01,-0.01,0.23,16642.386727870497,0.0
6,1900-01-01 19:27:33.700,21.787788,39.069153,0.0,126,152,16642,4,-1,0,0.01,0.01,0.18,16634.414687628778,0.0
7,1900-01-01 19:27:33.800,21.787788,39.069153,0.0,-214,-128,16634,-3,4,0,0.01,0.01,0.15,16634.228205720876,0.0
8,1900-01-01 19:27:34.000,21.787788,39.069153,0.0,80,-80,15692,-3,5,0,0.01,0.01,0.12,16634.03847536731,0.0
9,1900-01-01 19:27:34.100,21.787788,39.069153,0.0,16,46,16580,0,-2,0,0.01,0.01,0.09,16580.200722548565,0.0
10,1900-01-01 19:27:34.300,21.787788,39.069153,0.0,-46,-32,16786,1,3,0,0.01,0.02,0.06,16110.230414242995,0.0
11,1900-01-01 19:27:34.500,21.787788,39.069153,0.0,202,-110,16110,-2,5,0,0.01,0.02,0.04,16111.276423672954,0.0
12,1900-01-01 19:27:34.600,21.787788,39.069153,0.0,850,38,15782,-3,11,-1,0.01,-0.16,0.03,16132.440113014522,0.0
13,1900-01-01 19:27:34.800,21.787788,39.069153,0.0,858,-18,15906,-7,1,3,0.01,-0.57,0.01,16122.432322698707,0.0
14,1900-01-01 19:27:34.900,21.787788,39.069153,0.0,1000,-96,16732,3,1,-1,-0.01,-0.94,0.01,15983.047268903387,0.0
15,1900-01-01 19:27:35.100,21.787788,39.069153,0.0,834,-6,16100,-1,-2,5,-0.03,-1.3,0.01,16122.8471431072,0.0
16,1900-01-01 19:27:35.300,21.787788,39.069153,0.0,932,62,15960,-2,-2,3,-0.05,-1.5,0.06,16481.231750084702,0.0
17,1900-01-01 19:27:35.400,21.787788,39.069153,0.0,688,62,16460,-1,-1,4,-0.08,-1.62,0.07,16423.306731593366,0.0
18,1900-01-01 19:27:35.600,21.787788,39.069153,0.0,596,144,16574,-9,-3,4,-0.13,-1.73,0.08,16422.00694190573,0.0
19,1900-01-01 19:27:35.800,21.787788,39.069153,0.0,864,-10,16402,-2,2,2,-0.18,-1.85,0.02,16479.936529003986,0.0
20,1900-01-01 19:27:36.000,21.787788,39.069153,0.0,808,-260,15532,-6,7,6,-0.21,-2.04,-0.01,16424.740485012237,0.0
21,1900-01-01 19:27:36.100,21.787788,39.069153,0.0,1358,186,16722,4,8,2,-0.26,-2.44,-0.02,16232.903005932118,0.0
22,1900-01-01 19:27:36.300,21.787788,39.069153,0.0,1480,0,16176,-4,-9,10,-0.33,-2.92,-0.05,16189.057662507723,0.0
23,1900-01-01 19:27:36.500,21.787788,39.069153,0.0,1544,68,16132,-19,-6,16,-0.49,-3.09,-0.08,16243.564140914395,0.0
24,1900-01-01 19:27:36.700,21.787788,39.069153,0.0,1266,-516,15782,2,3,18,-0.71,-3.28,-0.29,16243.576453478465,0.0
25,1900-01-01 19:27:36.900,21.787788,39.069153,0.0,1880,-20,17388,30,-17,21,-0.88,-3.4,-0.25,16223.483966152276,0.0
26,1900-01-01 19:27:37.000,21.787788,39.069153,0.0,490,-30,16352,-19,19,30,-1.19,-3.47,-0.03,16400.94692388217,0.0
27,1900-01-01 19:27:37.200,21.787788,39.069153,0.0,1134,-4,16174,6,15,27,-1.57,-3.81,-0.12,16404.721881214566,0.0
28,1900-01-01 19:27:37.500,21.787785,39.069153,5.81,1896,300,16482,3,25,24,-1.92,-4.28,-0.11,16257.6252878457,0.000334
29,1900-01-01 19:27:37.700,21.787783,39.069157,5.89,1314,-914,16218,-44,-36,23,-2.43,-4.51,-0.35,16213.705560420172,0.000469
30,1900-01-01 19:27:38.000,21.787779,39.06916,6.45,1046,-458,15084,58,-30,26,-2.89,-4.38,-0.66,16211.680850547238,0.000542
31,1900-01-01 19:27:38.300,21.787775,39.069164,6.98,264,286,16132,-17,-32,17,-3.19,-3.84,0.48,16167.455458420165,0.000607
32,1900-01-01 19:27:38.600,21.787771,39.069168,7.54,548,248,16176,-17,26,29,-3.61,-3.33,0.18,16164.297572118623,0.000607
33,1900-01-01 19:27:39.000,21.787766,39.069176,8.67,1230,226,15300,24,27,24,-4.0,-3.78,-0.13,16206.394046795234,0.000996
34,1900-01-01 19:27:39.300,21.78776,39.06918,9.45,996,-238,16912,-10,10,19,-4.39,-3.84,0.39,16669.54804426323,0.000785
35,1900-01-01 19:27:39.600,21.787754,39.069187,10.41,966,-92,18744,20,-16,25,-4.72,-3.71,0.27,16668.11687024062,0.000984
36,1900-01-01 19:27:39.900,21.787748,39.069195,11.06,458,394,16640,15,8,21,-5.12,-3.54,0.22,16666.33397001272,0.001062
37,1900-01-01 19:27:40.200,21.787741,39.069199,11.78,932,58,14348,-14,6,25,-5.55,-3.45,-0.02,16666.180966256186,0.000881
38,1900-01-01 19:27:40.500,21.787733,39.069206,13.75,542,-150,16402,-16,2,25,-5.97,-3.59,0.12,16666.81013271586,0.001146
39,1900-01-01 19:27:40.900,21.787724,39.069218,14.02,970,156,17514,-5,-17,12,-6.39,-3.34,-0.11,16666.352570373638,0.001593
40,1900-01-01 19:27:41.100,21.787718,39.069221,14.2,1062,282,16828,-19,6,10,-6.54,-3.57,-0.15,16666.352570373638,0.000736
41,1900-01-01 19:27:41.400,21.78771,39.069229,14.54,1112,-354,16638,5,13,1,-6.58,-3.39,-0.37,16671.960052735252,0.001214
42,1900-01-01 19:27:41.800,21.787699,39.069241,14.87,940,-58,15488,7,-3,2,-6.61,-3.49,-0.09,16274.546260956095,0.001741
43,1900-01-01 19:27:42.100,21.787691,39.069252,15.05,1158,-842,16236,-23,-26,-13,-6.6,-3.76,-0.21,15534.214624499045,0.001443
44,1900-01-01 19:27:42.400,21.787683,39.06926,15.63,70,-736,15066,12,-12,-9,-6.39,-3.14,-0.4,15518.859236425853,0.001214
45,1900-01-01 19:27:42.800,21.787672,39.069275,17.1,1472,-444,15484,3,-23,2,-6.38,-3.52,-0.6,15507.93461425473,0.001974
46,1900-01-01 19:27:43.200,21.787659,39.069286,17.94,428,-238,15260,-12,4,2,-6.47,-3.22,-0.48,15496.726363977652,0.001838
47,1900-01-01 19:27:43.600,21.787645,39.069302,19.43,738,-312,15506,3,-17,20,-6.85,-3.51,-0.48,15504.716830693813,0.00227
48,1900-01-01 19:27:44.000,21.787632,39.069317,19.51,444,-546,15738,5,12,20,-7.41,-3.34,-0.41,15526.687476728575,0.002119
49,1900-01-01 19:27:44.500,21.787615,39.069336,20.4,902,158,15018,-30,-8,22,-8.14,-3.16,-0.6,15766.984619767978,0.002724
50,1900-01-01 19:27:45.100,21.787592,39.069359,21.26,1018,-494,17220,-13,20,13,-8.98,-3.22,-0.94,16322.430578807802,0.00349
51,1900-01-01 19:27:45.900,21.787563,39.069397,22.46,818,-498,16550,19,10,-1,-9.14,-2.95,-0.56,16323.705829253357,0.005079
52,1900-01-01 19:27:46.600,21.787535,39.069427,23.16,910,750,16290,-3,-11,-16,-8.62,-2.58,0.25,16586.187265312063,0.004392
53,1900-01-01 19:27:47.500,21.787498,39.069469,24.41,194,728,16298,-7,-15,-25,-7.88,-2.22,0.91,16567.139765209926,0.005978
54,1900-01-01 19:27:48.200,21.78747,39.069504,25.0,110,950,17518,11,5,-31,-7.04,-1.4,1.2,16314.62190796955,0.00477
55,1900-01-01 19:27:48.700,21.787449,39.06953,24.95,-534,242,16614,5,3,-29,-6.09,-0.77,1.16,16308.54144305983,0.003558
56,1900-01-01 19:27:49.200,21.787426,39.069553,24.97,-1400,-346,15182,-7,-26,-26,-5.18,0.18,1.11,16340.912459223322,0.00349
57,1900-01-01 19:27:49.700,21.787403,39.069576,25.02,-1386,-30,16282,-9,-16,-33,-4.49,0.95,1.06,16340.912459223322,0.00349
58,1900-01-01 19:27:50.100,21.787384,39.069595,24.69,-1930,-106,15512,-23,0,-27,-3.69,2.1,0.93,16342.422097106659,0.002883
59,1900-01-01 19:27:50.500,21.787367,39.069614,24.53,-1382,88,17426,-11,1,-21,-3.33,2.9,0.88,16926.72419577988,0.002724
60,1900-01-01 19:27:50.800,21.787352,39.069626,24.02,-2040,-356,16888,-2,0,-6,-3.03,3.67,0.55,16943.027828578928,0.002078
61,1900-01-01 19:27:51.200,21.787334,39.069641,23.11,-2272,-536,16816,8,-16,13,-3.12,4.52,0.13,16948.73021792488,0.002531
62,1900-01-01 19:27:51.500,21.787323,39.069653,21.94,-2426,-660,16530,-25,-3,36,-3.59,5.44,-0.24,16669.457219717744,0.001741
63,1900-01-01 19:27:51.800,21.787312,39.069664,21.11,-2048,-918,15570,5,9,58,-4.46,6.18,-0.88,16698.457533556804,0.001669
64,1900-01-01 19:27:52.100,21.7873,39.069672,20.12,-1924,-1050,16486,-11,-20,69,-5.65,6.7,-1.19,16680.865445174,0.001569
65,1900-01-01 19:27:52.400,21.787291,39.069683,18.31,-2880,-380,17404,3,1,96,-7.26,7.24,-1.75,16133.729141150226,0.001514
66,1900-01-01 19:27:52.700,21.787281,39.069691,17.05,-2790,-760,15128,-4,-14,117,-9.18,7.79,-2.22,16350.53381391568,0.001385
67,1900-01-01 19:27:53.000,21.787271,39.069698,14.74,-1578,-784,15984,-14,-9,136,-11.45,7.78,-2.63,16329.410277165554,0.001326
68,1900-01-01 19:27:53.300,21.787266,39.069706,12.81,-1746,-1436,16218,8,-21,165,-14.33,7.3,-3.26,16312.302351293027,0.000996
69,1900-01-01 19:27:53.600,21.78726,39.06971,10.55,-1260,-358,16240,-14,-11,181,-17.78,6.95,-3.29,16310.998497946102,0.000785
70,1900-01-01 19:27:53.900,21.787256,39.069717,8.82,-1476,-364,16456,1,1,190,-21.22,6.43,-3.52,16322.362329025784,0.000849
71,1900-01-01 19:27:54.200,21.787252,39.069721,8.03,-1278,-256,16738,18,-14,184,-24.74,6.03,-3.26,16320.443743967258,0.000607
72,1900-01-01 19:27:54.600,21.787251,39.069725,5.3,-1282,234,16268,-10,-2,162,-27.87,5.83,-2.76,16507.987036583232,0.000428
73,1900-01-01 19:27:54.900,21.787249,39.069729,4.78,-1288,268,16220,4,-4,150,-30.49,5.65,-2.54,16320.636384651181,0.000469
74,1900-01-01 19:27:55.100,21.787249,39.069729,4.34,-1326,564,16626,1,-5,125,-32.94,5.39,-1.84,16328.179445363772,0.0
75,1900-01-01 19:27:55.400,21.787249,39.069733,3.67,-802,758,15980,7,-7,96,-34.6,5.06,-1.27,16281.164208987022,0.000413
76,1900-01-01 19:27:55.700,21.787249,39.069736,3.14,-572,746,16654,4,-4,59,-35.89,4.6,-0.57,16271.45623476891,0.00031
77,1900-01-01 19:27:55.900,21.787251,39.069736,2.79,-360,660,16248,-2,-2,36,-36.64,4.11,-0.07,16265.383610600766,0.000222
78,1900-01-01 19:27:56.200,21.787251,39.06974,2.34,772,4,16186,-13,6,39,-37.08,3.33,-0.02,16339.642468548693,0.000413
79,1900-01-01 19:27:56.500,21.787251,39.069736,0.0,662,-60,16594,-2,-4,52,-37.67,2.35,-0.14,16339.500359558122,0.000413
80,1900-01-01 19:27:56.700,21.787251,39.069736,0.0,664,86,16326,-1,-3,77,-38.68,1.58,-0.26,16343.680491247986,0.0
81,1900-01-01 19:27:56.900,21.787251,39.069736,0.0,760,10,16328,-9,-4,94,-39.71,1.03,-0.33,16343.739229441957,0.0
82,1900-01-01 19:27:57.100,21.787251,39.069736,0.0,822,-44,15980,-10,-1,114,-41.2,0.54,-0.48,16343.739229441957,0.0
83,1900-01-01 19:27:57.400,21.787251,39.069736,0.0,914,-44,16184,-13,-8,135,-43.33,0.03,-0.67,16348.737076606254,0.0
84,1900-01-01 19:27:57.700,21.787251,39.069736,0.0,658,-256,16344,-15,-9,163,-46.17,-0.28,-0.94,16371.538351663841,0.0
85,1900-01-01 19:27:58.000,21.787251,39.069736,0.0,944,-538,16922,-23,-13,190,-48.91,-0.6,-1.2,16553.697592985078,0.0
86,1900-01-01 19:27:58.200,21.787251,39.069736,0.0,1196,-898,17130,6,-12,224,-52.65,-1.08,-1.64,16568.032592918207,0.0
87,1900-01-01 19:27:58.500,21.787252,39.06974,4.64,1284,-836,16518,-5,-8,276,-57.32,-1.55,-1.8,16918.180871476696,0.000428
88,1900-01-01 19:27:58.800,21.787254,39.069744,3.36,978,-990,16176,-7,-25,337,-62.89,-1.86,-2.13,16584.48853597843,0.000469
89,1900-01-01 19:27:59.100,21.787256,39.069748,3.37,738,-1510,16866,-35,-32,377,-68.43,-2.02,-2.59,16603.284855714548,0.000469
90,1900-01-01 19:27:59.400,21.787258,39.069748,3.71,718,-1600,16526,-30,-35,438,-75.46,-1.94,-3.56,16432.177579371517,0.000222
91,1900-01-01 19:27:59.600,21.787258,39.069752,4.01,588,-2512,16188,-8,-33,466,-83.26,-1.97,-4.5,16619.666663323907,0.000413
92,1900-01-01 19:27:59.900,21.78726,39.069756,4.42,984,-1318,16346,-8,-22,474,-91.69,-2.09,-4.46,16497.25249852229,0.000469
93,1900-01-01 19:28:00.200,21.787262,39.069756,4.98,760,-2480,17184,-28,-36,481,-100.48,-2.18,-5.27,16392.423249782198,0.000222
94,1900-01-01 19:28:00.500,21.787266,39.069759,5.68,272,-2110,16066,-13,-41,481,-107.38,-2.27,-5.74,16455.71329356464,0.000542
95,1900-01-01 19:28:00.700,21.787268,39.069763,6.13,714,-2804,16114,-16,-37,484,-115.64,-2.37,-6.35,16358.541132998382,0.000469
96,1900-01-01 19:28:01.000,21.787273,39.069763,6.41,772,-2806,16250,-19,-30,483,-127.35,-2.95,-7.29,16317.530327840668,0.000556
97,1900-01-01 19:28:01.400,21.787279,39.069767,7.08,260,-2726,15816,-20,-63,448,-136.65,-3.43,-7.71,16075.222175758567,0.000785
98,1900-01-01 19:28:01.700,21.787285,39.069771,8.36,532,-3278,15756,-53,-34,428,-145.85,-3.38,-8.31,16016.506235755662,0.000785
99,1900-01-01 19:28:02.100,21.787294,39.069775,11.05,636,-1750,14448,-27,-50,398,-155.09,-3.71,-8.55,15904.54941203931,0.001083
100,1900-01-01 19:28:02.400,21.787304,39.069775,11.55,1340,-1964,15770,-5,-8,311,-164.53,-4.34,-8.5,15896.151106478574,0.001112
101,1900-01-01 19:28:02.900,21.787321,39.069775,12.96,1172,-308,16988,-5,-16,131,-171.55,-5.07,-5.88,15849.37979859149,0.00189
102,1900-01-01 19:28:03.400,21.78734,39.069771,16.8,1554,-1066,15374,-8,-5,108,-174.64,-5.23,-5.22,16149.276144768843,0.002153
103,1900-01-01 19:28:03.900,21.787363,39.069763,17.84,760,-424,16164,1,4,65,-176.98,-5.33,-3.98,16209.359765271422,0.002688
104,1900-01-01 19:28:04.300,21.78738,39.069756,18.52,1506,52,16088,5,0,36,-177.99,-5.21,-3.3,16114.733258729417,0.002024
105,1900-01-01 19:28:04.700,21.787399,39.069744,21.4,434,-300,16466,4,-7,19,-178.5,-5.21,-2.52,16182.258556826979,0.002449
106,1900-01-01 19:28:05.000,21.787413,39.069733,22.47,878,1000,15972,-19,-5,11,-178.84,-5.02,-2.02,16270.457891528436,0.001927
107,1900-01-01 19:28:05.300,21.787428,39.069721,23.23,656,-114,16250,18,24,-3,-178.87,-5.23,-1.52,16487.470879428416,0.002078
108,1900-01-01 19:28:05.600,21.787443,39.06971,24.08,814,212,17146,8,-30,-9,-178.78,-5.0,-1.12,16650.516628621466,0.002018
109,1900-01-01 19:28:05.900,21.787457,39.069695,25.01,1308,1188,17118,-17,18,-5,-178.68,-4.79,-0.61,16783.4348093589,0.002196
110,1900-01-01 19:28:06.200,21.787472,39.069679,25.87,1678,-136,16626,66,16,-4,-178.56,-4.49,-0.6,16784.38655417588,0.002348
111,1900-01-01 19:28:06.500,21.787489,39.069668,26.17,1692,-186,16732,18,3,-1,-178.55,-4.43,0.22,16816.448257584,0.002205
112,1900-01-01 19:28:06.800,21.787504,39.069653,27.46,1192,624,16582,33,-11,-4,-178.47,-4.34,0.45,16806.498505042626,0.002276
113,1900-01-01 19:28:07.100,21.787521,39.069637,28.53,1864,132,17340,-10,2,-5,-178.5,-3.9,0.73,16767.06521726447,0.00251
114,1900-01-01 19:28:07.400,21.787539,39.069626,28.53,254,412,16722,-3,-7,-2,-178.47,-3.86,0.79,16769.49289632814,0.002301
115,1900-01-01 19:28:07.800,21.787563,39.069603,29.34,1206,234,15612,-25,21,-2,-178.47,-3.74,0.57,16790.795931104636,0.003572
116,1900-01-01 19:28:08.100,21.78758,39.069588,29.46,326,456,17884,-3,-30,-3,-178.44,-3.61,0.25,16790.795931104636,0.002444
117,1900-01-01 19:28:08.400,21.787598,39.069572,30.28,72,-1104,16786,2,24,-2,-178.41,-3.15,0.09,16796.44271862349,0.002595
118,1900-01-01 19:28:08.800,21.787622,39.069553,30.43,1198,128,17050,11,-26,0,-178.41,-3.33,0.16,17053.244383401066,0.003312
119,1900-01-01 19:28:09.100,21.78764,39.069538,30.75,544,354,16364,-15,12,-1,-178.39,-2.88,0.21,16797.41575362115,0.002531
120,1900-01-01 19:28:09.400,21.787659,39.069523,31.13,508,374,17042,17,3,0,-178.37,-3.03,0.07,16377.130029403808,0.00262
121,1900-01-01 19:28:09.700,21.787678,39.069504,32.07,-552,434,14672,-3,5,-4,-178.39,-3.05,0.29,16375.973742040502,0.002883
122,1900-01-01 19:28:10.100,21.787704,39.069485,32.33,1372,366,15972,-10,-20,2,-178.39,-2.96,0.29,16833.647970656864,0.003494
123,1900-01-01 19:28:10.400,21.787724,39.069466,33.03,358,256,16822,9,5,1,-178.38,-2.62,0.39,16733.8692477263,0.002966
124,1900-01-01 19:28:10.600,21.787737,39.069454,33.28,630,132,16862,-19,9,2,-178.38,-2.97,0.45,16759.599159884463,0.001904
125,1900-01-01 19:28:10.900,21.787758,39.069435,34.73,1700,776,16718,-12,-12,-1,-178.36,-2.94,0.39,16767.507745637096,0.00305
126,1900-01-01 19:28:11.100,21.787771,39.069424,34.83,1152,238,16238,-7,-4,2,-178.36,-2.78,0.46,16782.84087989873,0.001838
127,1900-01-01 19:28:11.400,21.787792,39.069408,34.94,674,450,16752,-6,10,2,-178.33,-2.57,0.61,16783.277510665193,0.00286
128,1900-01-01 19:28:11.600,21.787807,39.069397,34.89,912,466,16900,-33,4,-3,-178.3,-2.54,0.42,16777.03215708905,0.002018
129,1900-01-01 19:28:12.000,21.787834,39.06937,35.18,798,584,18536,10,-4,0,-178.28,-2.81,0.06,16777.03215708905,0.004097
130,1900-01-01 19:28:12.300,21.787855,39.069355,35.42,258,394,16518,23,-21,3,-178.27,-2.69,0.23,16714.598529429295,0.002802
131,1900-01-01 19:28:12.500,21.78787,39.069344,35.42,1160,430,15662,1,-2,-2,-178.26,-2.91,0.64,16640.560807857408,0.002018
132,1900-01-01 19:28:12.800,21.787891,39.069324,35.7,408,-64,16690,-20,-3,-4,-178.18,-2.59,0.51,16524.71252397451,0.003117
133,1900-01-01 19:28:13.100,21.787912,39.069305,36.44,236,1188,16630,0,5,-2,-178.18,-2.55,0.46,16193.430519812657,0.00305
134,1900-01-01 19:28:13.500,21.787941,39.069279,36.48,146,-50,15118,-21,-13,-2,-178.12,-2.31,0.52,16631.749637365276,0.004196
135,1900-01-01 19:28:13.800,21.787964,39.06926,36.64,130,580,16186,-6,22,0,-178.09,-2.41,0.49,16198.107667255455,0.003223
136,1900-01-01 19:28:14.100,21.787987,39.069241,37.86,1078,-160,16808,-11,4,1,-178.09,-2.67,0.35,16196.808944974315,0.003223
137,1900-01-01 19:28:14.400,21.788008,39.069221,37.81,984,648,15432,-10,1,3,-178.11,-2.78,0.35,16697.3637440166,0.003117
138,1900-01-01 19:28:14.800,21.788038,39.069195,37.84,550,218,16676,-14,3,0,-178.14,-2.68,0.46,16837.541507001548,0.004282
139,1900-01-01 19:28:15.100,21.788059,39.069176,38.01,798,276,18084,-8,3,0,-178.15,-2.79,0.31,16697.3637440166,0.00305
140,1900-01-01 19:28:15.400,21.788082,39.069157,38.74,958,280,19934,1,-28,1,-178.16,-2.79,0.1,17322.106338433558,0.003223
141,1900-01-01 19:28:15.700,21.788107,39.069134,38.96,332,-84,16548,-14,-22,4,-178.19,-2.74,0.07,17332.579842597006,0.003656
142,1900-01-01 19:28:16.000,21.78813,39.069115,40.82,316,-262,17312,14,-23,-1,-178.2,-2.61,0.2,17320.773770244792,0.003223
143,1900-01-01 19:28:16.300,21.788155,39.069092,41.4,834,1268,16844,-18,-29,4,-178.19,-2.46,0.51,16852.464389518824,0.003656
144,1900-01-01 19:28:16.700,21.788187,39.069065,41.61,476,278,17920,-37,3,-2,-178.19,-2.04,0.04,16853.649693760697,0.00452
145,1900-01-01 19:28:17.100,21.788219,39.069038,41.22,456,1248,15824,-24,-3,-9,-178.07,-1.84,0.18,16507.27330603089,0.00452
146,1900-01-01 19:28:17.700,21.788269,39.068996,41.5,1226,314,16490,6,-6,-4,-177.91,-1.84,0.31,15833.682704917388,0.007051
147,1900-01-01 19:28:18.300,21.788319,39.068954,42.47,354,586,15320,-5,-5,-7,-177.73,-1.93,0.77,15833.682704917388,0.007051
148,1900-01-01 19:28:18.900,21.78837,39.068909,43.06,-654,-148,13554,-23,-1,16,-177.86,-1.8,0.06,16496.787929775906,0.007331
149,1900-01-01 19:28:19.500,21.788422,39.068867,43.38,812,-388,18478,3,29,9,-178.23,-1.53,-0.74,16156.556687611379,0.007228
150,1900-01-01 19:28:20.100,21.788473,39.068821,44.55,276,314,17104,-4,29,18,-178.69,-1.69,-0.58,16170.080642965266,0.007397
151,1900-01-01 19:28:20.700,21.788527,39.068775,45.09,750,-188,16152,18,11,11,-179.1,-1.66,-0.51,16169.405307555377,0.007656
152,1900-01-01 19:28:21.300,21.78858,39.068733,45.03,882,318,15782,-14,-17,7,-179.37,-1.64,-0.48,16167.07679204871,0.007317
153,1900-01-01 19:28:21.900,21.788633,39.068684,46.0,558,-8,15086,-17,-17,4,-179.53,-1.49,-0.29,16063.817852552986,0.007767
154,1900-01-01 19:28:22.400,21.788677,39.068645,45.75,698,-144,16914,-35,32,1,-179.6,-1.35,-0.73,16058.343750212847,0.006337
155,1900-01-01 19:28:22.900,21.788723,39.068607,46.1,378,-754,16048,24,-1,0,-179.59,-1.35,-1.08,16919.03767948993,0.006446
156,1900-01-01 19:28:23.300,21.788757,39.068573,46.56,-208,-166,18368,19,-18,0,-179.58,-1.1,-0.75,18369.915514231416,0.005159
157,1900-01-01 19:28:23.700,21.788794,39.068542,46.57,-44,-1214,19872,12,1,2,-179.56,-1.23,-0.47,18369.915514231416,0.005213
158,1900-01-01 19:28:24.100,21.78883,39.068508,46.33,-26,-264,19224,-5,-67,1,-179.56,-1.01,-0.12,18368.768494376534,0.005324
159,1900-01-01 19:28:24.500,21.788866,39.068478,46.47,332,-66,17274,13,-32,-3,-179.57,-1.46,0.04,17274.24371716458,0.005062
160,1900-01-01 19:28:24.900,21.788902,39.068443,45.89,398,-88,16244,-13,-29,-2,-179.55,-1.25,0.25,16316.917968783198,0.005393
161,1900-01-01 19:28:25.300,21.788937,39.068413,46.3,-112,136,16316,-16,-28,-4,-179.51,-1.06,0.3,16247.526457895061,0.004974
162,1900-01-01 19:28:25.600,21.788963,39.06839,46.23,160,876,13106,-14,34,-1,-179.48,-0.95,0.17,16248.919471767962,0.003741
163,1900-01-01 19:28:25.900,21.78899,39.068367,46.05,512,-386,15948,-11,24,0,-179.41,-0.76,-0.05,16324.075594042071,0.003828
164,1900-01-01 19:28:26.200,21.789017,39.06834,46.12,698,38,17392,6,40,1,-179.39,-0.69,-0.12,17400.507578803557,0.004097
165,1900-01-01 19:28:26.600,21.789053,39.06831,46.65,730,-184,17406,27,-36,-2,-179.4,-0.94,0.2,17400.507578803557,0.005062
166,1900-01-01 19:28:27.000,21.789089,39.068279,46.68,350,-186,17708,36,35,1,-179.39,-0.88,0.43,17411.485634488516,0.005125
167,1900-01-01 19:28:27.300,21.789116,39.068253,46.59,-228,30,15850,-28,-8,-1,-179.35,-0.89,0.53,17411.485634488516,0.004027
168,1900-01-01 19:28:27.600,21.789145,39.06823,46.78,436,650,17970,12,11,-2,-179.28,-0.55,0.44,15855.254649484505,0.004005
169,1900-01-01 19:28:27.900,21.789171,39.068207,47.11,566,812,15526,-14,37,5,-179.24,-0.32,0.35,15861.026826785206,0.003741
170,1900-01-01 19:28:28.300,21.789207,39.068172,47.07,-134,210,15258,11,-13,-1,-179.24,-0.6,0.15,16044.900373638971,0.005393
171,1900-01-01 19:28:28.600,21.789236,39.06815,47.18,254,534,16668,29,28,-2,-179.22,-0.54,0.39,16037.885770886385,0.003944
172,1900-01-01 19:28:28.900,21.789263,39.068123,47.13,-220,332,16034,-1,1,0,-179.22,-0.42,0.59,16463.934159246386,0.004097
173,1900-01-01 19:28:29.200,21.789289,39.0681,46.8,120,222,17252,-33,2,-1,-179.22,-0.47,0.61,16669.910257706848,0.003741
174,1900-01-01 19:28:29.500,21.789318,39.068073,46.6,198,-90,16462,-3,4,-2,-179.17,-0.16,0.13,17129.59847748919,0.004263
175,1900-01-01 19:28:29.800,21.789345,39.06805,46.47,-280,-82,17128,-1,-28,-4,-179.13,0.01,-0.05,17252.612208010705,0.003828
176,1900-01-01 19:28:30.100,21.789371,39.068027,46.52,74,238,19716,13,-41,0,-179.09,0.07,-0.08,17128.356138287178,0.003741
177,1900-01-01 19:28:30.400,21.789398,39.068001,46.59,188,-444,22140,-47,-16,-11,-179.01,0.05,0.19,17810.34250091783,0.004027
178,1900-01-01 19:28:30.700,21.789425,39.067978,46.55,-272,494,14084,15,25,-9,-178.89,0.06,0.39,17810.248173453394,0.003828
179,1900-01-01 19:28:31.000,21.789454,39.067955,46.69,280,-160,17810,5,-6,-9,-178.76,0.31,0.63,16634.325114052568,0.004005
180,1900-01-01 19:28:31.400,21.78949,39.067921,46.68,-732,-58,16632,-6,15,-5,-178.64,0.49,0.66,16211.524542744275,0.005324
181,1900-01-01 19:28:31.700,21.789516,39.067898,46.89,-1460,402,16190,9,11,-5,-178.53,0.96,0.45,16649.40803752494,0.003741
182,1900-01-01 19:28:32.000,21.789543,39.067871,46.86,-760,1146,15860,-3,-41,-7,-178.43,1.11,0.48,16212.812957657903,0.004097
183,1900-01-01 19:28:32.300,21.789572,39.067848,46.84,-1254,42,17546,-9,-4,-1,-178.32,1.6,0.4,16212.812957657903,0.004005
184,1900-01-01 19:28:32.500,21.789589,39.067833,46.78,-152,936,15758,-6,-9,-7,-178.26,1.56,0.23,15878.327871662053,0.002444
185,1900-01-01 19:28:32.800,21.789618,39.06781,46.51,-288,64,18314,24,19,-2,-178.22,2.08,0.13,16110.701536556377,0.004005
186,1900-01-01 19:28:33.100,21.789644,39.067787,46.03,-1232,-256,15572,-9,-22,1,-178.2,2.0,0.12,16108.844278842602,0.003741
187,1900-01-01 19:28:33.400,21.789671,39.06776,45.44,26,552,16108,-17,28,0,-178.17,1.73,0.17,17020.832059567474,0.004097
188,1900-01-01 19:28:33.800,21.789705,39.06773,44.77,-92,-116,17098,-16,-4,-2,-178.12,1.44,0.16,17050.143107903816,0.004888
189,1900-01-01 19:28:34.200,21.78974,39.067703,43.97,-1040,-338,17018,17,2,-2,-178.09,1.4,0.18,17099.21612238409,0.004787
190,1900-01-01 19:28:34.600,21.789774,39.067673,43.69,-1130,182,17442,26,0,3,-178.09,1.3,0.24,17451.631556963377,0.004888
191,1900-01-01 19:28:35.000,21.789808,39.067642,43.35,200,206,19002,1,-36,0,-178.2,1.64,0.05,17453.96379049756,0.004954
192,1900-01-01 19:28:35.300,21.789833,39.067623,42.69,-568,-690,18888,6,-29,6,-178.27,1.77,-0.18,17445.65791250075,0.003402
193,1900-01-01 19:28:35.700,21.789867,39.067593,42.7,374,-308,16456,-20,-1,2,-178.32,1.75,-0.29,16577.84943833186,0.004888
194,1900-01-01 19:28:35.900,21.789883,39.067581,42.17,662,-296,16574,-19,-18,5,-178.36,1.98,-0.37,16578.21088055041,0.002168
195,1900-01-01 19:28:36.200,21.789907,39.067558,41.77,-128,332,16274,-9,-42,3,-178.39,2.03,-0.5,16460.241067493513,0.003572
196,1900-01-01 19:28:36.500,21.789932,39.067539,40.35,228,-104,17132,-8,23,6,-178.43,2.2,-0.55,16344.832088461479,0.003402
197,1900-01-01 19:28:36.900,21.789965,39.067513,39.71,-1174,-802,13902,5,-15,5,-178.48,1.92,-0.43,16354.680430995893,0.004547
198,1900-01-01 19:28:37.200,21.789988,39.067493,39.51,-704,636,16344,11,11,4,-178.55,1.71,-0.15,17142.189475093313,0.003287
199,1900-01-01 19:28:37.500,21.79001,39.067474,39.09,-570,156,17966,4,-3,2,-178.56,1.69,-0.03,16359.917970454497,0.003136
200,1900-01-01 19:28:37.800,21.790033,39.067451,38.79,-18,452,18426,4,3,2,-178.61,1.83,0.03,16360.18153933507,0.00349
201,1900-01-01 19:28:38.100,21.790054,39.067432,38.61,-980,158,16304,-14,-10,0,-178.67,1.92,0.06,16314.311018244074,0.00305
202,1900-01-01 19:28:38.400,21.790077,39.067413,37.75,-558,1192,16158,15,-1,-3,-178.68,2.06,-0.07,16168.404126567346,0.003223
203,1900-01-01 19:28:38.700,21.7901,39.067394,37.33,-482,-530,15978,9,8,-10,-178.56,2.09,0.13,16168.404126567346,0.003223
204,1900-01-01 19:28:39.000,21.790121,39.067375,36.73,-1156,-230,15866,29,23,-11,-178.4,2.51,0.29,16174.338440876028,0.00305
205,1900-01-01 19:28:39.300,21.790142,39.067356,36.32,-432,544,16276,0,21,-7,-178.26,2.43,0.53,16283.703387129108,0.00305
206,1900-01-01 19:28:39.700,21.790171,39.067333,36.04,-406,598,17120,0,-8,-11,-178.03,2.61,0.53,16308.23166379482,0.004005
207,1900-01-01 19:28:40.000,21.790192,39.067314,35.57,-600,136,16300,-15,-13,-11,-177.8,2.85,0.43,16404.51669510565,0.00305
208,1900-01-01 19:28:40.300,21.790213,39.067299,34.28,-76,286,17298,6,-2,-6,-177.65,3.03,0.43,17130.162054107954,0.002802
209,1900-01-01 19:28:40.700,21.790239,39.067276,33.83,-1112,538,16390,-9,24,-9,-177.46,3.03,0.51,16403.472071485354,0.003741
210,1900-01-01 19:28:41.000,21.79026,39.067257,33.57,-516,286,17856,-11,-21,-7,-177.22,3.15,0.18,16559.791423807244,0.00305
211,1900-01-01 19:28:41.500,21.790293,39.067234,31.93,-1016,-262,16094,-5,9,-2,-176.99,3.5,-0.17,16559.39431259489,0.004371
212,1900-01-01 19:28:41.900,21.790318,39.067211,30.85,-840,-306,16536,4,-9,2,-177.0,3.18,-0.48,17123.74760383953,0.003656
213,1900-01-01 19:28:42.300,21.790342,39.067192,30.37,-822,-344,17752,13,9,2,-177.03,3.26,-0.54,16558.490994048945,0.003312
214,1900-01-01 19:28:42.800,21.790373,39.067169,29.35,-458,-58,17102,15,13,-2,-177.02,3.32,-0.58,17121.8413729365,0.004186
215,1900-01-01 19:28:43.300,21.790401,39.067146,27.97,-598,290,16290,11,-7,2,-177.04,3.26,-0.55,17115.332424466666,0.003916
216,1900-01-01 19:28:43.800,21.790428,39.067123,26.21,-1130,544,18068,21,18,-1,-177.01,3.91,-0.55,16303.996442590387,0.003828
217,1900-01-01 19:28:44.400,21.790457,39.067097,24.69,-610,298,15750,1,10,-2,-177.01,3.77,-0.65,16331.720668686445,0.004196
218,1900-01-01 19:28:44.700,21.790472,39.067085,24.46,-1718,-806,15982,8,-9,-3,-177.02,3.78,-0.68,16029.181638499203,0.002078
219,1900-01-01 19:28:45.000,21.790485,39.067074,23.79,-1208,-226,16502,3,-10,2,-177.06,3.86,-0.62,16029.209961816583,0.001838
220,1900-01-01 19:28:45.300,21.790501,39.067062,23.16,-1428,-358,15450,22,5,-3,-177.1,4.15,-0.65,16565.23987148994,0.002168
221,1900-01-01 19:28:45.600,21.790514,39.067051,21.48,-994,-228,17368,7,-8,2,-177.19,4.39,-0.49,16565.212464680313,0.001838
222,1900-01-01 19:28:45.900,21.790525,39.067043,20.92,-1556,404,17206,-6,2,0,-177.24,4.61,-0.45,17176.231949994155,0.001476
223,1900-01-01 19:28:46.300,21.790543,39.067028,20.13,-1578,416,16100,14,2,7,-177.31,4.7,-0.32,17187.346973864234,0.002531
224,1900-01-01 19:28:46.600,21.790554,39.06702,19.26,-1110,460,17112,19,2,3,-177.44,4.67,-0.05,16719.536476828536,0.001476
225,1900-01-01 19:28:46.900,21.790565,39.067013,18.83,-1684,-46,16640,0,-12,1,-177.51,4.97,0.07,16727.372178558115,0.001421
226,1900-01-01 19:28:47.300,21.790579,39.067001,16.86,-2264,-78,16174,0,-9,3,-177.59,5.81,0.3,16762.41056650266,0.00199
227,1900-01-01 19:28:47.700,21.790592,39.06699,15.51,-2724,282,16902,3,9,3,-177.64,6.47,0.37,16762.4640193499,0.001838
228,1900-01-01 19:28:48.100,21.790604,39.066982,13.42,-2022,-18,14836,-8,14,4,-177.68,6.82,0.42,16299.91055190181,0.001569
229,1900-01-01 19:28:48.500,21.790613,39.066971,12.78,-488,-838,16990,-2,3,3,-177.75,5.6,0.54,16445.66094749615,0.001514
230,1900-01-01 19:28:48.800,21.790621,39.066967,11.84,630,534,15922,15,41,7,-177.98,2.21,0.82,16448.403691544052,0.000981
231,1900-01-01 19:28:49.300,21.790632,39.066959,10.47,1292,628,16436,-21,-49,2,-178.09,0.42,1.11,16453.22886244521,0.001476
232,1900-01-01 19:28:49.900,21.790642,39.066952,7.26,-2304,412,18946,20,26,12,-177.76,4.99,0.57,15943.595203090174,0.001326
233,1900-01-01 19:28:50.500,21.790649,39.06694,7.55,1358,-34,15494,-16,171,13,-177.91,-0.21,0.83,15838.16302479552,0.001463
234,1900-01-01 19:28:51.200,21.790661,39.066933,9.17,720,-24,15780,-16,21,-1,-177.99,-2.28,0.94,15510.738602658483,0.001518
235,1900-01-01 19:28:51.900,21.790674,39.066917,11.52,2280,540,13200,-23,-80,27,-178.54,-3.37,0.96,15446.826729137607,0.002195
236,1900-01-01 19:28:52.500,21.790689,39.066906,13.52,-10,-296,14116,-2,50,70,179.52,-0.94,0.05,15430.021905363583,0.002018
237,1900-01-01 19:28:53.200,21.790709,39.066887,14.34,-2072,-422,15430,18,-6,80,176.49,0.63,-0.81,15570.568390396029,0.002965
238,1900-01-01 19:28:53.800,21.790722,39.066872,14.29,-4204,1194,16864,24,48,66,173.77,4.74,0.03,16139.569882744707,0.002119
239,1900-01-01 19:28:54.400,21.790735,39.066853,13.54,-2712,-254,16670,-2,29,41,172.48,6.43,-0.06,16798.398137917793,0.002437
240,1900-01-01 19:28:54.800,21.790745,39.066841,12.74,-780,778,16004,-6,9,31,171.84,5.55,0.39,16691.00703972052,0.001665
241,1900-01-01 19:28:55.200,21.790751,39.066833,11.53,-612,64,16762,-4,5,23,171.47,4.77,0.41,16542.120299405393,0.001062
242,1900-01-01 19:28:55.500,21.790754,39.066826,10.53,-394,304,16300,3,0,15,171.03,3.93,0.69,16412.838023937238,0.000796
243,1900-01-01 19:28:55.800,21.790758,39.066822,8.42,-544,354,16528,4,-4,13,170.72,3.4,0.95,16536.48499530659,0.000607
244,1900-01-01 19:28:56.200,21.79076,39.066814,5.96,850,504,16400,4,-9,14,170.48,2.31,1.17,16540.158403110898,0.000855
245,1900-01-01 19:28:56.600,21.790762,39.066811,5.35,734,466,16712,2,-7,17,170.22,1.21,1.37,16550.85182097888,0.000381
246,1900-01-01 19:28:56.900,21.790764,39.066807,5.35,430,570,16738,-4,-2,20,169.9,0.48,1.41,16556.401782996207,0.000469
247,1900-01-01 19:28:57.200,21.790764,39.066803,4.1,1810,462,16222,-7,14,24,169.51,-0.59,1.28,16550.739681355633,0.000413
248,1900-01-01 19:28:57.600,21.790764,39.066799,2.98,1824,254,16528,-2,-8,27,169.07,-2.07,1.15,16536.031567458984,0.000413
249,1900-01-01 19:28:57.900,21.790766,39.066795,3.25,158,284,16334,-4,-11,29,168.52,-2.27,1.14,16549.30632987377,0.000469
250,1900-01-01 19:28:58.200,21.790766,39.066795,3.07,398,196,16632,-5,-1,31,167.93,-1.71,1.03,16652.68867180312,0.0
251,1900-01-01 19:28:58.500,21.790768,39.066792,3.04,790,462,17330,2,2,34,167.27,-2.07,1.08,16651.904996125817,0.000381
252,1900-01-01 19:28:58.800,21.790768,39.066792,3.37,1288,-124,16760,-2,4,40,166.57,-2.32,0.93,16682.92552282123,0.0
253,1900-01-01 19:28:59.100,21.79077,39.066788,3.48,2454,194,16348,-9,11,62,165.57,-3.24,0.74,16867.72492068803,0.000469
254,1900-01-01 19:28:59.400,21.790771,39.066784,3.97,2094,-490,16048,1,-11,88,163.95,-4.43,0.27,16458.50783029859,0.000428
255,1900-01-01 19:28:59.700,21.790771,39.06678,4.44,1900,-112,17016,19,7,98,162.05,-4.88,0.26,16387.89187174482,0.000413
256,1900-01-01 19:29:00.100,21.790775,39.066776,5.44,1662,-492,16232,-23,-14,118,159.59,-4.89,0.0,16334.764522330894,0.000607
257,1900-01-01 19:29:00.500,21.790777,39.066769,6.72,1762,-594,16270,2,-14,157,156.28,-4.96,-0.67,16327.672951158716,0.000756
258,1900-01-01 19:29:00.900,21.790781,39.066761,8.19,1212,-902,15840,-15,-13,189,153.06,-4.87,-1.13,16192.635116002584,0.000938
259,1900-01-01 19:29:01.200,21.790783,39.066753,9.62,982,-1198,15044,-5,-3,199,149.54,-4.69,-1.56,15931.407596317407,0.000855
260,1900-01-01 19:29:01.500,21.790787,39.066742,10.14,800,-1508,16122,-28,-14,226,145.31,-4.37,-2.0,15944.407922528826,0.00122
261,1900-01-01 19:29:01.800,21.790789,39.066734,10.89,1646,-1820,15832,-29,-28,238,141.21,-4.35,-2.82,16089.034775274744,0.000855
262,1900-01-01 19:29:02.100,21.790791,39.066727,11.79,1388,-1360,15992,-33,-16,243,136.84,-4.19,-3.54,16251.582815221414,0.000756
263,1900-01-01 19:29:02.400,21.790794,39.066715,12.68,1124,-1212,16292,-3,-35,224,132.71,-3.97,-4.13,16301.237867106902,0.001283
264,1900-01-01 19:29:02.700,21.790796,39.066704,13.62,1386,-1608,16164,-11,-16,208,128.63,-3.91,-4.14,16289.626269500477,0.001157
265,1900-01-01 19:29:03.000,21.790796,39.066689,14.36,1010,-1592,17230,-20,-11,216,124.47,-4.03,-4.57,16282.626815105725,0.001549
266,1900-01-01 19:29:03.300,21.790798,39.066677,14.92,1242,-2444,15176,27,5,207,119.93,-4.39,-5.02,16277.815086798351,0.001259
267,1900-01-01 19:29:03.700,21.790798,39.066658,15.76,1052,-1794,16032,-35,-6,194,116.43,-4.54,-4.66,16152.148711549185,0.001962
268,1900-01-01 19:29:04.000,21.790798,39.066647,16.05,1004,-1334,17144,-1,-10,184,113.02,-4.48,-5.11,16166.328092674601,0.001136
269,1900-01-01 19:29:04.300,21.790798,39.066631,16.31,1022,-1680,15820,-22,2,166,109.83,-4.51,-5.16,17015.25033609556,0.001652
270,1900-01-01 19:29:04.500,21.790798,39.066624,16.43,1740,-2086,16898,-13,-20,167,107.18,-4.77,-5.55,17037.613095736153,0.000723
271,1900-01-01 19:29:04.800,21.790798,39.066608,16.57,1810,-1694,17396,-1,7,161,104.19,-5.09,-5.8,15974.533357816747,0.001652
272,1900-01-01 19:29:05.100,21.790796,39.066597,17.01,1384,-1258,14936,-8,-12,145,100.86,-5.19,-5.59,17006.34834407434,0.001157
273,1900-01-01 19:29:05.500,21.790794,39.066574,17.79,1446,-180,14268,-9,2,95,97.93,-5.35,-4.57,17460.30572470024,0.002385
274,1900-01-01 19:29:05.900,21.790791,39.066555,18.61,1300,256,17602,20,-8,58,96.31,-5.21,-3.74,15265.59281521684,0.00199
275,1900-01-01 19:29:06.200,21.790785,39.06654,19.32,1614,-388,19880,0,-2,43,95.21,-4.97,-3.29,15280.925233767752,0.001686
276,1900-01-01 19:29:06.500,21.790779,39.066525,20.19,1490,-1492,15192,-3,-26,27,94.31,-5.43,-2.73,15385.053526068734,0.001686
277,1900-01-01 19:29:06.900,21.790771,39.066502,20.99,1320,-364,15208,7,-13,14,93.83,-5.2,-2.01,15385.053526068734,0.002536
278,1900-01-01 19:29:07.200,21.790764,39.066486,21.59,880,226,15324,13,-5,4,93.59,-5.1,-1.46,15375.587663565904,0.001826
279,1900-01-01 19:29:07.600,21.790754,39.066463,22.48,1238,938,17108,14,18,-4,93.56,-5.0,-0.86,16352.54659066899,0.002622
280,1900-01-01 19:29:07.900,21.790749,39.066444,22.94,346,408,16692,-23,-6,-7,93.58,-4.85,-0.51,16719.187300822967,0.002039
281,1900-01-01 19:29:08.200,21.790741,39.066429,23.67,820,398,16324,-1,-5,0,93.62,-4.53,-0.46,16716.86776881363,0.001786
282,1900-01-01 19:29:08.400,21.790735,39.066418,24.0,866,254,17006,0,3,-4,93.65,-4.43,-0.36,16716.35845511815,0.001317
283,1900-01-01 19:29:08.700,21.790728,39.066399,24.3,648,376,16194,14,-4,-2,93.69,-4.29,-0.23,16838.202635673442,0.002111
284,1900-01-01 19:29:08.900,21.790722,39.066387,24.47,1774,-260,17652,-5,-4,-4,93.72,-4.14,-0.03,16854.20137532479,0.001407
285,1900-01-01 19:29:09.200,21.790712,39.066368,25.02,1252,-548,16814,12,-5,-2,93.75,-4.1,0.09,16854.20137532479,0.002255
286,1900-01-01 19:29:09.400,21.790705,39.066357,25.69,1158,112,16280,28,10,0,93.79,-4.06,0.32,16854.20137532479,0.001377
287,1900-01-01 19:29:09.700,21.790695,39.066338,26.71,870,334,17620,30,1,-4,93.8,-4.02,0.54,16303.614445882851,0.002255
288,1900-01-01 19:29:09.900,21.790688,39.066322,27.21,788,378,15920,-4,0,-6,93.84,-3.91,0.7,16306.225804888143,0.001826
289,1900-01-01 19:29:10.100,21.790678,39.066311,27.85,682,-438,16028,3,-9,-2,93.88,-3.85,0.74,16261.263296558482,0.001589
290,1900-01-01 19:29:10.300,21.79067,39.066299,28.3,862,586,16504,4,5,-2,93.91,-3.8,0.8,16060.17658682494,0.001525
291,1900-01-01 19:29:10.500,21.790661,39.066284,28.87,1426,538,16234,-5,18,-3,93.93,-3.81,0.87,16278.860156657161,0.001844
292,1900-01-01 19:29:10.800,21.790646,39.066265,30.55,1056,988,15636,-25,-11,-1,93.98,-3.7,0.87,16278.860156657161,0.002575
293,1900-01-01 19:29:11.000,21.790634,39.066254,31.84,1152,744,19260,5,-3,-3,94.01,-3.68,0.82,16270.197786136467,0.001752
294,1900-01-01 19:29:11.200,21.790621,39.066238,32.71,474,188,16214,5,-9,-5,94.05,-3.69,0.81,16060.577075559893,0.002195
295,1900-01-01 19:29:11.500,21.790604,39.066219,34.06,1174,706,16010,-22,-5,-4,94.11,-3.6,0.79,16054.184501244528,0.002724
296,1900-01-01 19:29:11.700,21.790592,39.066208,34.25,1060,-126,14790,-13,-3,-5,94.16,-3.65,0.72,14921.12194173079,0.001752
297,1900-01-01 19:29:12.000,21.790573,39.066185,34.69,1082,496,14116,-16,8,-7,94.23,-3.66,0.6,14921.12194173079,0.003179
298,1900-01-01 19:29:12.200,21.790562,39.06617,35.27,1498,234,14880,8,12,-1,94.28,-3.73,0.6,14919.38470581143,0.001973
299,1900-01-01 19:29:12.500,21.790543,39.066147,35.78,206,-128,16066,21,1,-1,94.32,-3.71,0.63,15685.113834461004,0.003179
300,1900-01-01 19:29:12.700,21.790531,39.066132,36.1,1396,54,16978,9,-13,2,94.35,-3.79,0.82,15676.008930847163,0.002044
301,1900-01-01 19:29:12.900,21.790518,39.066116,36.52,968,516,15646,-21,-7,-1,94.38,-3.74,0.91,16062.073589670794,0.002195
302,1900-01-01 19:29:13.200,21.790501,39.066093,37.15,530,-502,15054,-24,-9,3,94.35,-3.65,0.73,15676.008930847163,0.003035
303,1900-01-01 19:29:13.400,21.790487,39.066074,37.35,832,-340,16040,-4,-4,4,94.3,-3.61,0.59,15669.071957202827,0.002504
304,1900-01-01 19:29:13.700,21.79047,39.066051,38.43,1326,382,14194,6,4,5,94.24,-3.53,0.58,16063.416822083651,0.003035
305,1900-01-01 19:29:13.900,21.790457,39.066032,39.13,432,174,16838,1,4,5,94.18,-3.5,0.66,16062.506031127272,0.002437
306,1900-01-01 19:29:14.100,21.790443,39.066017,39.66,878,-244,17156,-2,-3,6,94.11,-3.35,0.64,16256.659681496689,0.002196
307,1900-01-01 19:29:14.400,21.790422,39.065987,41.05,414,194,15320,5,-1,4,94.02,-3.28,0.62,16256.576023259018,0.003879
308,1900-01-01 19:29:14.600,21.790407,39.065968,42.16,1254,-132,16232,4,23,4,93.95,-3.03,0.63,16256.576023259018,0.002575
309,1900-01-01 19:29:14.900,21.790386,39.065937,43.9,1086,166,16026,-10,5,6,93.88,-3.04,0.58,16245.225021525555,0.003962
310,1900-01-01 19:29:15.100,21.790371,39.065918,44.5,634,536,16786,-7,7,3,93.84,-2.91,0.52,16520.569239587356,0.002575
311,1900-01-01 19:29:15.300,21.790356,39.065899,44.63,400,-564,16524,-5,0,2,93.82,-2.86,0.44,16511.84265913408,0.002575
312,1900-01-01 19:29:15.500,21.79034,39.06588,44.95,1786,814,16484,1,12,0,93.8,-2.89,0.47,16496.581706523324,0.002648
313,1900-01-01 19:29:15.700,21.790325,39.065857,45.45,944,-114,16126,6,-4,-2,93.8,-2.84,0.49,16407.947464567285,0.002902
314,1900-01-01 19:29:15.900,21.79031,39.065838,45.76,574,-398,16394,-8,21,-1,93.82,-2.6,0.48,16409.078828502228,0.002575
315,1900-01-01 19:29:16.200,21.790287,39.065811,46.28,652,-180,13802,-12,23,4,93.8,-2.65,0.4,16141.329189382142,0.003783
316,1900-01-01 19:29:16.400,21.790272,39.065788,46.49,694,212,18450,11,-25,-1,93.8,-2.52,0.3,15678.80173992898,0.002902
317,1900-01-01 19:29:16.600,21.790255,39.065769,46.65,706,230,15662,16,2,3,93.79,-2.48,0.26,15679.337486003673,0.002724
318,1900-01-01 19:29:16.800,21.790239,39.06575,46.68,794,752,15358,16,21,0,93.77,-2.39,0.27,15679.337486003673,0.002648
319,1900-01-01 19:29:17.000,21.790224,39.065731,46.86,1058,-486,16270,-14,14,0,93.77,-2.26,0.22,15677.912361025623,0.002575
320,1900-01-01 19:29:17.200,21.790207,39.065708,47.06,466,-652,14766,-17,13,4,93.74,-2.31,0.17,15379.684522122032,0.003035
321,1900-01-01 19:29:17.400,21.790192,39.065689,46.87,-190,-16,17226,-2,-1,2,93.73,-2.08,0.19,15344.779307634242,0.002575
322,1900-01-01 19:29:17.700,21.790167,39.065659,47.26,656,-534,14794,-5,-1,1,93.71,-2.08,0.25,15330.643430723969,0.004162
323,1900-01-01 19:29:17.900,21.790152,39.065639,47.25,22,140,15330,9,34,2,93.7,-1.84,0.25,15330.08349618488,0.002654
324,1900-01-01 19:29:18.100,21.790136,39.06562,47.55,48,-132,18188,7,-18,-1,93.69,-1.95,0.27,15330.643430723969,0.002648
325,1900-01-01 19:29:18.300,21.790119,39.065598,47.5,584,602,15192,-9,-8,1,93.68,-1.76,0.21,15754.695173185675,0.002955
326,1900-01-01 19:29:18.600,21.790096,39.065567,48.33,-102,-132,15754,-26,17,1,93.7,-1.53,0.13,15754.853728295924,0.004097
327,1900-01-01 19:29:18.800,21.790079,39.065548,48.44,130,502,15880,22,-11,-1,93.69,-1.5,0.09,15754.853728295924,0.002724
328,1900-01-01 19:29:19.000,21.790062,39.065525,48.39,250,100,15622,-15,-30,-1,93.68,-1.25,0.11,15880.653135183074,0.003035
329,1900-01-01 19:29:19.200,21.790047,39.065506,48.26,-366,-262,15920,-15,12,2,93.69,-1.09,-0.02,15920.651494207139,0.002575
330,1900-01-01 19:29:19.400,21.79003,39.065483,48.12,516,-62,16702,-13,29,1,93.69,-1.21,-0.17,15922.508596323632,0.003035
331,1900-01-01 19:29:19.600,21.790014,39.065464,47.89,106,-972,18682,-6,-45,-3,93.7,-1.1,-0.38,16294.451325527963,0.002648
332,1900-01-01 19:29:19.800,21.789997,39.065445,47.9,-460,-612,15104,10,20,3,93.7,-0.9,-0.46,16705.481974489692,0.002724
333,1900-01-01 19:29:20.000,21.789982,39.065422,47.78,494,-250,16292,-8,-14,1,93.68,-1.17,-0.33,17233.37529330804,0.002902
334,1900-01-01 19:29:20.200,21.789965,39.065403,47.99,232,22,17230,-6,2,2,93.68,-0.92,-0.33,16296.6795390963,0.002724
335,1900-01-01 19:29:20.400,21.789949,39.06538,47.87,300,-52,19822,60,18,5,93.65,-1.2,-0.29,17078.71423731892,0.002967
336,1900-01-01 19:29:20.600,21.789932,39.065361,47.97,338,-294,15346,9,-16,0,93.58,-1.47,0.2,17077.576994409952,0.002724
337,1900-01-01 19:29:20.800,21.789917,39.065342,47.98,-68,186,17076,-6,-17,0,93.58,-1.22,0.52,16186.016063256578,0.002575
338,1900-01-01 19:29:21.000,21.7899,39.065319,48.21,-22,-6,15558,8,1,3,93.55,-1.31,0.45,16187.083616266396,0.003035
339,1900-01-01 19:29:21.300,21.789875,39.065289,48.5,-228,478,16186,2,-13,-1,93.56,-1.31,0.52,16187.083616266396,0.004162
340,1900-01-01 19:29:21.500,21.78986,39.065266,48.9,1166,1036,16622,-31,31,0,93.57,-1.51,0.5,16024.960280762009,0.002902
341,1900-01-01 19:29:21.800,21.789835,39.065235,49.21,1210,-310,16018,-19,30,2,93.59,-1.69,0.15,16196.998610853801,0.004239
342,1900-01-01 19:29:22.100,21.78981,39.065205,49.61,422,212,14898,16,-8,1,93.58,-1.81,0.18,16653.16318301121,0.004162
343,1900-01-01 19:29:22.300,21.789793,39.065182,50.01,-444,422,16874,0,-23,-4,93.61,-1.54,0.31,16377.254104397354,0.003035
344,1900-01-01 19:29:22.500,21.789776,39.065159,50.05,996,-882,18966,-6,19,1,93.6,-1.56,0.21,16350.821508413575,0.003035
345,1900-01-01 19:29:22.700,21.789759,39.06514,50.34,1054,-496,16344,29,-7,5,93.54,-2.0,0.34,16351.081309809453,0.002724
346,1900-01-01 19:29:22.900,21.789742,39.065117,50.79,232,558,15376,6,5,3,93.54,-1.68,0.8,15635.405591157525,0.003035
347,1900-01-01 19:29:23.100,21.789724,39.065094,51.27,310,-368,15262,-8,7,1,93.51,-1.54,0.81,15630.404985156334,0.003106
348,1900-01-01 19:29:23.400,21.7897,39.065063,51.23,274,12,15628,-9,-3,1,93.52,-1.41,0.73,15629.726549111472,0.004167
349,1900-01-01 19:29:23.600,21.789682,39.065041,51.3,-162,10,16912,2,-8,2,93.49,-1.39,0.58,16913.356851908495,0.003028
350,1900-01-01 19:29:23.800,21.789665,39.065018,51.46,-368,212,17130,-7,-12,0,93.48,-1.45,0.55,16913.35815265555,0.003035
351,1900-01-01 19:29:24.000,21.789648,39.064995,51.5,214,-754,17040,1,-4,1,93.46,-1.52,0.54,16913.884710497467,0.003035
352,1900-01-01 19:29:24.200,21.789629,39.064972,51.44,332,386,15080,4,8,3,93.43,-1.54,0.53,15696.08371537308,0.003179
353,1900-01-01 19:29:24.300,21.789621,39.06496,51.51,758,134,15124,-4,22,0,93.42,-1.57,0.52,15696.08371537308,0.001525
354,1900-01-01 19:29:24.500,21.789602,39.064941,51.64,564,-224,15692,5,-29,-2,93.43,-1.62,0.52,15706.258625146857,0.002883
355,1900-01-01 19:29:24.700,21.789585,39.064919,51.78,-188,360,17166,23,-8,-7,93.48,-1.45,0.65,16156.396875541279,0.002955
356,1900-01-01 19:29:24.800,21.789576,39.064907,51.83,1046,956,16136,5,4,-9,93.55,-1.54,0.86,16340.311502538745,0.001593
357,1900-01-01 19:29:25.000,21.789558,39.064884,51.78,804,290,16328,12,27,-11,93.68,-1.39,0.89,16333.760987598662,0.003106
358,1900-01-01 19:29:25.200,21.789541,39.064861,51.79,-20,-194,16724,-12,-14,-10,93.74,-1.43,0.96,16333.249646044109,0.003035
359,1900-01-01 19:29:25.300,21.789532,39.06485,51.89,242,552,16316,-13,20,-9,93.85,-1.36,0.93,16332.368107534192,0.001514
360,1900-01-01 19:29:25.500,21.789515,39.064827,51.98,208,336,16690,-5,-21,-9,93.94,-1.45,0.88,16694.677594970202,0.003035
361,1900-01-01 19:29:25.700,21.789497,39.064804,52.1,584,-408,15576,-12,-15,-4,94.02,-1.24,0.86,16463.208192815884,0.003106
362,1900-01-01 19:29:25.800,21.789488,39.064793,52.07,-338,646,17002,1,8,-5,94.09,-1.08,1.01,16462.792108266447,0.001514
363,1900-01-01 19:29:26.000,21.789471,39.064774,52.21,328,-298,16458,34,41,0,94.11,-1.24,0.98,16463.96525749493,0.002724
364,1900-01-01 19:29:26.100,21.789461,39.064758,52.19,772,224,15992,-16,-6,-4,94.11,-1.4,1.13,17003.2676859479,0.001991
365,1900-01-01 19:29:26.300,21.789444,39.064739,52.26,-168,-758,17368,-10,9,-5,94.17,-1.2,0.93,16459.54883950347,0.002724
366,1900-01-01 19:29:26.500,21.789427,39.064716,52.18,-544,-122,17134,-49,-39,-10,94.2,-1.3,0.79,16432.866578902172,0.003035
367,1900-01-01 19:29:26.600,21.789417,39.064705,52.45,190,504,13896,-44,36,-3,94.25,-1.24,0.55,17135.257920439948,0.001589
368,1900-01-01 19:29:26.800,21.7894,39.064682,52.53,-392,16,16432,-25,-21,-13,94.39,-0.89,0.3,17135.06089863704,0.003035
369,1900-01-01 19:29:27.000,21.789383,39.064659,52.58,302,-180,17386,23,1,-3,94.47,-0.92,0.12,16437.368767536973,0.003035
370,1900-01-01 19:29:27.200,21.789366,39.064636,52.6,608,292,18106,74,16,-4,94.52,-1.01,0.34,16824.741067844105,0.003035
371,1900-01-01 19:29:27.400,21.789349,39.064613,52.69,1360,1684,15994,9,-16,-5,94.58,-1.13,0.95,17055.24306481734,0.003035
372,1900-01-01 19:29:27.600,21.78933,39.06459,52.59,-28,32,16822,-28,24,-5,94.63,-1.0,1.13,16835.516386496733,0.003179
373,1900-01-01 19:29:27.800,21.789312,39.064568,52.7,546,724,17044,-14,21,-6,94.69,-1.2,0.95,16245.209632380864,0.003028
374,1900-01-01 19:29:28.000,21.789295,39.064545,52.98,1262,-170,14888,-3,8,-4,94.76,-1.39,0.66,16238.814488748863,0.003035
375,1900-01-01 19:29:28.200,21.789278,39.064522,53.22,250,-450,16236,26,-12,-3,94.78,-1.19,0.61,16238.814488748863,0.003035
376,1900-01-01 19:29:28.400,21.789261,39.064499,53.33,-98,-530,15568,30,-14,3,94.79,-1.08,0.74,16239.795688369974,0.003035
377,1900-01-01 19:29:28.500,21.789251,39.064487,53.42,222,1380,16328,7,14,4,94.74,-1.03,1.03,16334.493809114501,0.001665
378,1900-01-01 19:29:28.700,21.789234,39.064461,53.43,-708,-272,16814,-25,1,0,94.75,-0.97,0.85,16336.89346234467,0.003283
379,1900-01-01 19:29:28.900,21.789217,39.064438,53.53,-174,-862,17006,20,43,7,94.71,-1.07,0.49,16337.900477111494,0.003035
380,1900-01-01 19:29:29.100,21.7892,39.064415,53.55,530,-568,15540,13,10,3,94.67,-1.44,0.47,16823.614474898073,0.003035
381,1900-01-01 19:29:29.200,21.78919,39.064404,53.53,28,-930,14670,-10,-55,3,94.67,-1.24,0.61,16784.51595965758,0.001589
382,1900-01-01 19:29:29.400,21.789173,39.064381,53.69,174,144,17352,-17,7,1,94.66,-0.85,0.51,15558.285252559164,0.003035
383,1900-01-01 19:29:29.600,21.789154,39.064358,53.8,694,-358,16774,8,17,1,94.64,-0.9,0.21,16560.78428094515,0.003179
384,1900-01-01 19:29:29.700,21.789145,39.064346,53.98,496,-856,15096,8,-8,2,94.63,-1.0,0.18,16557.95796588456,0.001593
385,1900-01-01 19:29:29.900,21.789127,39.06432,54.06,-134,370,16556,12,5,0,94.61,-0.99,0.28,16147.003932618583,0.003349
386,1900-01-01 19:29:30.100,21.78911,39.064297,54.15,210,886,16144,-3,15,1,94.58,-0.95,0.33,15753.079064106802,0.003035
387,1900-01-01 19:29:30.200,21.789101,39.064285,54.18,-98,-230,15750,4,12,4,94.55,-0.94,0.26,16147.003932618583,0.001593
388,1900-01-01 19:29:30.400,21.789083,39.064262,54.33,568,-350,15586,-20,-16,2,94.53,-0.88,0.29,16147.003932618583,0.003106
389,1900-01-01 19:29:30.600,21.789066,39.06424,54.56,322,-442,16338,3,-9,1,94.5,-0.82,0.23,16341.776035670053,0.002955
390,1900-01-01 19:29:30.800,21.789047,39.064213,54.43,-30,168,18046,7,5,3,94.48,-0.83,0.2,17510.211306549103,0.003498
391,1900-01-01 19:29:30.900,21.78904,39.064201,54.52,-122,-946,17512,6,-9,2,94.44,-0.87,0.16,17506.796280302115,0.001463
392,1900-01-01 19:29:31.100,21.789021,39.064178,54.59,158,54,17506,5,14,3,94.41,-0.74,0.18,17507.519070388014,0.003179
393,1900-01-01 19:29:31.300,21.789003,39.064156,54.48,160,250,13524,-3,31,9,94.36,-1.02,0.17,17506.796280302115,0.003028
394,1900-01-01 19:29:31.500,21.788986,39.064129,54.56,220,388,16434,4,-6,5,94.33,-0.92,0.16,16434.867568678488,0.003368
395,1900-01-01 19:29:31.600,21.788977,39.064117,54.86,62,-284,18846,-2,31,5,94.27,-0.76,0.17,16435.1742308988,0.001593
396,1900-01-01 19:29:31.800,21.78896,39.064095,54.87,586,-114,14060,-9,-4,6,94.21,-0.8,0.14,17737.73074550406,0.002955
397,1900-01-01 19:29:32.000,21.78894,39.064072,54.84,-278,-302,17736,6,-10,4,94.17,-0.55,0.09,17739.979368646404,0.003253
398,1900-01-01 19:29:32.200,21.788923,39.064045,54.83,370,22,18858,15,-9,5,94.13,-0.52,0.05,17740.225252233973,0.003368
399,1900-01-01 19:29:32.400,21.788904,39.064022,54.62,246,-706,17160,-3,11,5,94.07,-0.47,0.02,17740.276660751377,0.003179
400,1900-01-01 19:29:32.500,21.788895,39.064011,54.47,376,-54,18016,4,-6,4,94.02,-0.39,0.05,17161.848152224164,0.001514
401,1900-01-01 19:29:32.700,21.788877,39.063988,54.39,-62,-508,14312,1,3,4,93.96,-0.37,0.13,15746.206400273051,0.003106
402,1900-01-01 19:29:32.900,21.78886,39.063965,54.2,32,594,15356,0,3,1,93.95,-0.33,0.27,15746.241075253483,0.003035
403,1900-01-01 19:29:33.100,21.788841,39.063938,54.28,-262,-74,15746,6,5,-5,94.01,-0.35,0.44,15357.7912474418,0.003498
404,1900-01-01 19:29:33.300,21.788824,39.063915,54.41,-46,-614,16214,-33,-3,-5,94.09,-0.33,0.52,15356.184682400768,0.003035
405,1900-01-01 19:29:33.500,21.788807,39.063892,54.25,-14,-230,15332,-13,0,6,94.05,-0.27,0.33,15332.463598521928,0.003035
406,1900-01-01 19:29:33.700,21.788788,39.063869,54.19,186,492,15090,-13,-6,1,94.01,-0.26,0.29,15332.400986146951,0.003179
407,1900-01-01 19:29:33.900,21.788771,39.063847,54.2,-334,-110,14770,1,16,3,93.99,-0.23,0.23,15332.34567833637,0.002955
408,1900-01-01 19:29:34.000,21.788761,39.063835,54.29,90,1056,15906,-4,4,0,93.97,-0.1,0.32,15908.789771695394,0.001665
409,1900-01-01 19:29:34.200,21.788742,39.063812,54.3,-892,102,16562,21,-7,0,93.97,-0.04,0.34,16132.096453964066,0.003179
410,1900-01-01 19:29:34.400,21.788725,39.063789,54.17,660,284,21246,-7,-25,-1,93.96,-0.09,0.48,16132.096453964066,0.003035
411,1900-01-01 19:29:34.600,21.788706,39.063766,54.4,268,244,16130,-2,-1,0,93.96,-0.2,0.46,16131.465153543866,0.003179
412,1900-01-01 19:29:34.800,21.788689,39.06374,54.54,30,-66,15528,16,2,2,93.97,-0.11,0.41,15688.187148297282,0.003283
413,1900-01-01 19:29:35.000,21.788671,39.063717,54.53,192,-116,15684,-27,18,0,93.97,-0.1,0.61,15687.072894584253,0.003106
414,1900-01-01 19:29:35.200,21.788652,39.063694,54.46,440,668,15014,-18,-8,-2,93.98,-0.27,0.65,15553.325175022865,0.003179
415,1900-01-01 19:29:35.400,21.788635,39.063671,54.37,-156,508,16030,0,-20,-1,94.01,-0.12,0.55,15553.300871519203,0.003035
416,1900-01-01 19:29:35.600,21.788618,39.063648,54.37,284,-302,15552,-17,13,-3,94.04,-0.07,0.47,15552.898122215036,0.003035
417,1900-01-01 19:29:35.800,21.788599,39.063625,54.26,-340,-60,14606,6,24,-7,94.11,0.11,0.3,16033.717597612851,0.003179
418,1900-01-01 19:29:36.100,21.788574,39.063591,54.36,-1532,-104,16976,15,40,-4,94.13,-0.25,0.25,16239.879925664474,0.004478
419,1900-01-01 19:29:36.300,21.788555,39.063568,54.38,-446,170,16632,4,2,-5,94.19,-0.03,0.42,16635.58306762946,0.003179
420,1900-01-01 19:29:36.600,21.788528,39.063534,55.1,288,-102,16236,9,26,0,94.22,-0.11,0.49,16636.181893691835,0.004619
421,1900-01-01 19:29:36.800,21.788511,39.063507,54.97,44,696,16788,-15,26,-5,94.27,-0.02,0.62,16595.998674379316,0.003368
422,1900-01-01 19:29:37.100,21.788485,39.063473,54.72,-332,444,16590,1,-2,-3,94.33,-0.01,0.51,16595.998674379316,0.004548
423,1900-01-01 19:29:37.400,21.78846,39.063438,54.41,242,880,16470,4,-4,-4,94.4,-0.03,0.63,16779.93289617095,0.004559
424,1900-01-01 19:29:37.600,21.788441,39.063416,54.17,-486,14,16774,-16,8,-6,94.47,-0.05,0.73,16594.727475918367,0.003102
425,1900-01-01 19:29:37.900,21.788416,39.063381,54.37,452,-222,17482,-2,-8,-3,94.55,-0.06,0.62,16474.608948318015,0.004559
426,1900-01-01 19:29:38.200,21.788389,39.063347,54.04,-136,372,15418,-1,-8,-2,94.6,-0.29,0.79,16774.22630108465,0.004619
427,1900-01-01 19:29:38.500,21.788364,39.063313,53.89,116,438,16430,-11,7,-4,94.66,-0.24,0.87,17308.511085590235,0.004478
428,1900-01-01 19:29:38.700,21.788347,39.063286,53.82,-86,-502,17306,0,-7,-6,94.72,-0.22,0.75,16612.388268999734,0.003368
429,1900-01-01 19:29:39.000,21.788321,39.063251,53.77,-280,282,18580,21,-30,-2,94.78,-0.18,0.77,17308.511085590235,0.004628
430,1900-01-01 19:29:39.300,21.788296,39.063217,53.68,920,816,16608,-6,-4,0,94.78,-0.4,0.91,17306.863725123625,0.004478
431,1900-01-01 19:29:39.500,21.788279,39.063194,53.81,-190,-150,17362,-22,7,1,94.79,-0.13,0.73,17112.543937124017,0.003035
432,1900-01-01 19:29:39.800,21.788252,39.06316,53.93,1084,-494,17024,31,5,6,94.73,-0.39,0.46,17029.635932690988,0.004619
433,1900-01-01 19:29:40.000,21.788235,39.063137,53.83,380,766,17106,-9,-15,2,94.68,-0.6,0.48,17029.635932690988,0.003035
434,1900-01-01 19:29:40.200,21.788218,39.063114,53.77,-166,218,15238,-16,-1,2,94.64,-0.36,0.21,17029.635932690988,0.003035
435,1900-01-01 19:29:40.400,21.7882,39.063091,53.98,738,338,15158,-8,-17,2,94.63,-0.42,0.05,16860.54874551834,0.003106
436,1900-01-01 19:29:40.700,21.788176,39.063057,53.88,-520,-772,18196,14,18,5,94.6,-0.29,0.01,15239.261005704968,0.00441
437,1900-01-01 19:29:40.900,21.788158,39.063034,53.75,196,4,16858,19,25,2,94.58,-0.45,0.13,15902.308511659558,0.003106
438,1900-01-01 19:29:41.100,21.788141,39.063011,53.75,286,-344,15050,-1,-14,3,94.54,-0.52,0.31,16501.315583916334,0.003035
439,1900-01-01 19:29:41.400,21.788115,39.062977,53.75,-56,-314,15898,-18,-6,5,94.49,-0.42,0.36,15899.926289137318,0.004548
440,1900-01-01 19:29:41.600,21.788097,39.062954,53.85,104,66,16498,-8,-2,2,94.46,-0.39,0.3,15901.44068944698,0.003106
441,1900-01-01 19:29:41.800,21.78808,39.062931,54.0,174,-176,15896,-13,-19,3,94.44,-0.31,0.12,15941.3108620339,0.003035
442,1900-01-01 19:29:42.100,21.788054,39.062897,53.46,80,-612,15940,4,13,6,94.4,-0.3,0.12,16213.052272783185,0.004548
443,1900-01-01 19:29:42.300,21.788036,39.062874,53.43,326,62,16212,-18,-16,1,94.36,-0.35,0.3,15941.856102725304,0.003106
444,1900-01-01 19:29:42.600,21.788012,39.06284,53.82,368,560,17706,0,6,0,94.35,-0.09,0.15,15940.321326748717,0.00441
445,1900-01-01 19:29:42.900,21.787985,39.062805,54.16,-316,-170,14160,-1,16,4,94.34,-0.03,0.08,15541.543166622805,0.004698
446,1900-01-01 19:29:43.100,21.787968,39.062778,54.12,-556,602,15538,6,-22,-2,94.33,-0.02,0.17,15551.298981114085,0.003368
447,1900-01-01 19:29:43.300,21.787951,39.062756,53.85,832,48,15476,5,25,3,94.34,0.11,0.21,15544.38355162404,0.002955
448,1900-01-01 19:29:43.500,21.787933,39.062733,53.92,-850,966,16550,1,-17,-2,94.32,0.01,0.21,16555.993355881732,0.003106
449,1900-01-01 19:29:43.600,21.787924,39.062721,53.87,-400,196,16662,-5,10,0,94.31,-0.06,0.2,16665.212389885706,0.001593
450,1900-01-01 19:29:43.800,21.787907,39.062698,53.95,688,-176,17440,-4,11,-1,94.29,-0.14,0.16,16665.816871668787,0.003035
451,1900-01-01 19:29:44.000,21.787889,39.062675,53.75,262,480,18652,19,-13,0,94.29,-0.05,0.08,16665.816871668787,0.003106
452,1900-01-01 19:29:44.200,21.787872,39.062653,53.45,296,242,15326,3,0,2,94.27,-0.07,0.16,16347.891117817002,0.002955
453,1900-01-01 19:29:44.400,21.787853,39.06263,53.36,-216,464,15586,-6,-4,1,94.25,0.16,0.34,15762.025504356983,0.003179
454,1900-01-01 19:29:44.700,21.787828,39.062595,53.22,194,-146,16344,4,-8,-3,94.23,0.09,0.49,15757.052897036298,0.004559
455,1900-01-01 19:29:44.900,21.787811,39.062572,52.83,-176,894,15754,3,6,3,94.25,0.18,0.5,16351.532282939113,0.003035
456,1900-01-01 19:29:45.100,21.787794,39.06255,52.83,370,-1008,16990,26,8,2,94.24,-0.1,0.66,16346.16456542635,0.002955
457,1900-01-01 19:29:45.300,21.787777,39.062527,52.89,-606,770,16978,-1,-24,-4,94.25,0.14,0.91,16387.01119789695,0.003035
458,1900-01-01 19:29:45.500,21.78776,39.062508,52.99,308,182,16326,-4,11,1,94.25,-0.0,0.88,16387.01119789695,0.002724
459,1900-01-01 19:29:45.700,21.787743,39.062485,52.98,4,148,16386,4,-3,-1,94.25,0.02,0.83,16387.050253172474,0.003035
460,1900-01-01 19:29:45.900,21.787725,39.062462,52.52,-580,596,15414,-10,2,-2,94.26,0.12,0.85,16385.050381368987,0.003106
461,1900-01-01 19:29:46.100,21.78771,39.062439,52.68,-36,100,16592,6,-16,2,94.27,0.08,0.79,16386.330522725337,0.002902
462,1900-01-01 19:29:46.300,21.787693,39.062416,52.79,-84,274,16384,-19,-6,-2,94.28,0.12,0.84,16392.100170508962,0.003035
463,1900-01-01 19:29:46.500,21.787676,39.062393,52.79,306,514,14560,-25,12,-1,94.29,0.11,0.82,16594.264189773527,0.003035
464,1900-01-01 19:29:46.700,21.787659,39.06237,52.94,352,752,16690,14,16,2,94.29,0.08,0.8,16386.292930373238,0.003035
465,1900-01-01 19:29:46.900,21.787642,39.062347,52.97,8,-246,18586,-10,-5,-3,94.31,0.11,0.9,16700.716511575185,0.003035
466,1900-01-01 19:29:47.100,21.787624,39.062325,52.89,-18,-162,15300,-10,-17,3,94.31,0.12,0.94,16690.39124766103,0.003028
467,1900-01-01 19:29:47.300,21.787609,39.062302,52.88,306,752,17058,4,6,-1,94.31,0.21,0.99,16748.39765470118,0.002902
468,1900-01-01 19:29:47.500,21.787592,39.062283,52.77,-516,114,16298,-2,0,-4,94.32,0.21,0.97,16301.073093511359,0.002724
469,1900-01-01 19:29:47.700,21.787575,39.06226,52.51,-240,316,16748,0,-15,2,94.31,0.13,0.93,16673.48457881555,0.003035
470,1900-01-01 19:29:47.800,21.787565,39.062248,52.55,204,560,15730,-11,-14,-1,94.3,0.12,0.96,16464.85809231285,0.001665
471,1900-01-01 19:29:48.000,21.78755,39.062225,52.62,282,524,16664,-2,10,2,94.29,0.19,0.92,16673.884370475884,0.002902
472,1900-01-01 19:29:48.200,21.787533,39.062202,52.45,468,500,16456,3,8,1,94.29,0.06,0.91,16466.009231140375,0.003035
473,1900-01-01 19:29:48.400,21.787516,39.06218,52.42,554,286,17318,-16,10,1,94.29,0.11,0.88,16460.900825896497,0.002955
474,1900-01-01 19:29:48.600,21.787498,39.062157,52.62,-222,-6,15894,-8,9,1,94.28,-0.02,0.87,15944.111138599104,0.003106
475,1900-01-01 19:29:48.800,21.787483,39.062134,52.58,-520,-100,15940,-14,-15,-1,94.3,0.07,0.8,15897.157607572493,0.002902
476,1900-01-01 19:29:49.000,21.787466,39.062111,52.42,-274,586,14926,-21,21,-1,94.31,0.05,0.74,15895.636382353492,0.003035
477,1900-01-01 19:29:49.100,21.787458,39.062103,52.35,-228,220,15416,-17,-1,1,94.33,-0.05,0.69,15420.004280155048,0.001214
478,1900-01-01 19:29:49.300,21.787441,39.06208,52.24,-118,-10,18092,18,14,1,94.34,0.01,0.67,15199.012336332911,0.003035
479,1900-01-01 19:29:49.500,21.787424,39.062057,52.15,-368,680,13578,-22,24,-2,94.34,0.03,0.73,15188.05188297696,0.003035
480,1900-01-01 19:29:49.700,21.787407,39.062035,51.94,400,1344,15186,-19,21,-2,94.37,0.07,0.69,15186.459626917658,0.002955
481,1900-01-01 19:29:49.900,21.787392,39.062016,52.03,-90,6,14518,-22,-16,-3,94.39,-0.0,0.58,15201.483348673575,0.002575
482,1900-01-01 19:29:50.100,21.787374,39.061993,51.95,-324,-394,15680,2,18,-2,94.44,0.2,0.41,15191.26828148328,0.003106
483,1900-01-01 19:29:50.300,21.787357,39.06197,52.0,706,1324,18338,-1,-4,1,94.45,0.03,0.49,15680.259436629229,0.003035
484,1900-01-01 19:29:50.500,21.787342,39.061947,51.84,682,-476,14340,-14,5,0,94.47,0.04,0.48,16053.087304316263,0.002902
485,1900-01-01 19:29:50.700,21.787325,39.061928,51.56,-806,612,17858,19,39,-1,94.49,0.21,0.49,17173.11736406643,0.002724
486,1900-01-01 19:29:50.900,21.787308,39.061905,51.63,1152,138,16038,-22,-60,-5,94.51,-0.09,0.56,17170.1049501743,0.003035
487,1900-01-01 19:29:51.100,21.787292,39.061882,51.8,674,350,17156,-11,40,1,94.58,0.33,0.45,17172.801518680637,0.002967
488,1900-01-01 19:29:51.400,21.787268,39.061852,51.95,1422,-916,18022,32,-12,-6,94.6,0.01,0.36,16770.183302516405,0.004089
489,1900-01-01 19:29:51.600,21.787251,39.061829,52.09,-484,618,16730,30,6,-2,94.63,-0.01,0.47,17172.801518680637,0.003035
490,1900-01-01 19:29:51.800,21.787235,39.061806,52.26,1350,-74,13794,-22,6,-4,94.65,-0.48,0.5,16745.2128084417,0.002967
491,1900-01-01 19:29:52.100,21.78721,39.061771,52.07,-1554,574,17768,-4,56,-3,94.67,0.08,0.8,16196.548150763483,0.004559
492,1900-01-01 19:29:52.400,21.787186,39.061741,52.02,424,948,15462,-51,-49,-4,94.72,-0.51,0.61,16186.405407007449,0.004089
493,1900-01-01 19:29:52.700,21.787161,39.061707,51.87,-110,32,16186,47,32,2,94.82,0.41,0.17,16274.736987122096,0.004478
494,1900-01-01 19:29:52.900,21.787146,39.061684,52.18,-348,-570,16266,36,-7,2,94.83,-0.15,0.58,16267.17861216259,0.002902
495,1900-01-01 19:29:53.300,21.787113,39.061638,51.87,-228,482,17432,-6,36,-2,94.82,0.12,1.19,16473.608954931522,0.006002
496,1900-01-01 19:29:53.600,21.787088,39.061607,51.94,-30,162,16770,-8,-8,-1,94.84,-0.13,0.82,16473.710086073508,0.004239
497,1900-01-01 19:29:53.900,21.787064,39.061573,51.7,-436,-596,16472,-3,-16,-1,94.89,-0.15,0.8,16473.694546154486,0.00441
498,1900-01-01 19:29:54.300,21.787033,39.061531,51.75,-74,-66,16096,-14,-8,-4,94.92,-0.16,0.93,16472.962817902553,0.00554
499,1900-01-01 19:29:54.600,21.787008,39.061497,51.29,-172,246,16306,2,-6,0,94.97,0.02,0.81,16474.00303508531,0.004478
500,1900-01-01 19:29:55.000,21.786976,39.061455,51.29,422,340,16504,-18,-2,0,94.97,-0.15,1.05,16308.253983796058,0.00561
501,1900-01-01 19:29:55.300,21.786953,39.06142,51.62,114,896,17326,-6,4,-1,94.96,-0.19,1.07,16308.845575331197,0.004427
502,1900-01-01 19:29:55.600,21.786928,39.061386,51.64,162,188,14608,1,-4,3,94.96,-0.18,1.06,16508.296701961714,0.004478
503,1900-01-01 19:29:56.000,21.786896,39.061344,51.57,174,258,14232,-4,16,4,94.95,-0.35,1.13,17328.295819266245,0.00561
504,1900-01-01 19:29:56.300,21.786871,39.06131,51.5,-714,402,19288,-5,0,0,94.97,-0.13,1.01,15463.870408148148,0.004478
505,1900-01-01 19:29:56.700,21.78684,39.061268,51.21,-150,-16,17604,-22,-10,-3,94.98,-0.23,0.69,16717.003798528014,0.00554
506,1900-01-01 19:29:57.000,21.786816,39.061234,51.33,-332,36,15462,-37,-40,-7,95.06,-0.39,0.05,16715.051540452994,0.00441
507,1900-01-01 19:29:57.400,21.786785,39.061192,51.36,-184,262,16714,5,28,-2,95.15,0.15,-0.1,16592.71707707933,0.00554
508,1900-01-01 19:29:57.800,21.786753,39.061146,51.54,742,-116,16592,3,-27,-2,95.16,-0.03,0.1,15955.101629259527,0.005935
509,1900-01-01 19:29:58.200,21.78672,39.061104,51.3,546,62,15954,18,-3,-1,95.16,0.07,0.28,16601.097072181707,0.005681
510,1900-01-01 19:29:58.600,21.78669,39.061062,51.17,-262,-170,15002,3,14,3,95.16,0.17,0.42,16578.997557150433,0.005471
511,1900-01-01 19:29:58.900,21.786667,39.061028,51.31,608,172,18392,12,14,1,95.15,0.1,0.48,16000.26537279929,0.004343
512,1900-01-01 19:29:59.200,21.786642,39.060993,51.42,-546,-12,16570,23,6,2,95.16,-0.09,0.39,16452.559800833424,0.004559
513,1900-01-01 19:29:59.500,21.786619,39.060963,51.39,-510,272,15998,28,-11,-2,95.16,-0.05,0.64,16452.80583973445,0.004017
514,1900-01-01 19:29:59.700,21.786602,39.06094,51.43,-502,804,16444,4,-8,1,95.16,-0.02,0.9,16454.155098333064,0.003035
515,1900-01-01 19:30:00.000,21.786579,39.060909,50.79,-1284,-410,13260,-31,5,-3,95.24,0.22,0.83,16008.438024991696,0.004097
516,1900-01-01 19:30:00.300,21.786554,39.060875,50.93,-300,520,16784,-4,7,-1,95.28,0.54,0.69,16452.41939655077,0.004478
517,1900-01-01 19:30:00.600,21.786531,39.060844,50.84,-1076,136,15500,4,22,-1,95.31,0.59,0.64,16392.85234484835,0.004097
518,1900-01-01 19:30:00.900,21.786507,39.060814,50.71,-454,158,18144,-14,15,-1,95.38,1.06,0.49,16790.882525942463,0.004089
519,1900-01-01 19:30:01.200,21.786484,39.06078,50.19,-114,-1088,16386,38,-9,-1,95.39,1.19,0.44,16400.947655547225,0.004343
520,1900-01-01 19:30:01.500,21.786461,39.060749,50.1,-682,248,17882,-9,16,12,95.36,1.97,0.38,17037.46201756588,0.004097
521,1900-01-01 19:30:01.800,21.786438,39.060715,49.73,-704,346,16386,18,12,8,95.18,1.86,0.33,17038.356845658564,0.004343
522,1900-01-01 19:30:02.100,21.786415,39.060684,49.4,-1428,472,17022,-21,-18,6,95.13,2.56,0.27,17196.612689713053,0.004097
523,1900-01-01 19:30:02.400,21.786392,39.060654,48.14,-1400,-242,17140,-4,17,5,95.03,2.72,-0.19,17077.61083992723,0.004017
524,1900-01-01 19:30:02.700,21.786369,39.060623,47.11,-1372,-118,17268,10,12,0,95.01,2.97,-0.3,17195.229222083664,0.004097
525,1900-01-01 19:30:02.900,21.786356,39.060604,46.95,-556,-752,16148,-9,-28,-1,94.98,3.07,-0.28,17161.370225014085,0.002437
526,1900-01-01 19:30:03.200,21.786333,39.060574,45.87,-376,572,17348,25,8,2,94.94,3.33,-0.08,16986.632509123167,0.004017
527,1900-01-01 19:30:03.400,21.78632,39.060555,45.55,-848,222,15344,-2,-10,1,94.94,3.45,0.13,16985.656183968873,0.002437
528,1900-01-01 19:30:03.600,21.786306,39.060535,45.47,-1344,244,16964,26,13,3,94.92,3.67,0.17,16986.934273140636,0.002586
529,1900-01-01 19:30:03.800,21.786291,39.060516,45.2,-822,256,17234,-2,-2,1,94.91,3.68,0.35,17017.66153147958,0.002575
530,1900-01-01 19:30:04.000,21.786278,39.060497,44.94,-1368,-200,16684,10,-20,-1,94.9,3.81,0.34,17018.604995709844,0.002437
531,1900-01-01 19:30:04.300,21.786259,39.060471,43.54,-1332,222,17294,1,41,3,94.88,3.92,0.21,16738.559197254704,0.003416
532,1900-01-01 19:30:04.500,21.786245,39.060452,43.31,-1592,-576,15516,11,-21,-1,94.85,3.74,0.19,16738.559197254704,0.002504
533,1900-01-01 19:30:04.700,21.786232,39.060432,43.0,-1304,758,15570,-4,22,3,94.85,4.02,0.33,17097.104433207398,0.002521
534,1900-01-01 19:30:04.900,21.786219,39.060417,42.73,-996,472,17040,-14,-3,1,94.83,3.95,0.51,16416.679445003487,0.002119
535,1900-01-01 19:30:05.100,21.786205,39.060398,42.46,-1314,794,17906,-39,7,0,94.84,4.15,0.38,17081.354513035552,0.002504
536,1900-01-01 19:30:05.400,21.786186,39.060371,41.83,-1012,-548,16358,6,-1,3,94.81,4.08,0.16,17079.21309662714,0.003498
537,1900-01-01 19:30:05.600,21.786173,39.060356,40.68,-1056,544,17076,-17,0,-1,94.8,4.07,0.12,17064.998095517036,0.002119
538,1900-01-01 19:30:05.800,21.786161,39.060337,39.92,-1108,100,17032,-12,-2,1,94.8,4.01,-0.04,16771.295596941818,0.002373
539,1900-01-01 19:30:06.000,21.786148,39.060322,39.68,-896,-610,16680,9,6,1,94.79,3.76,-0.21,16771.576550819544,0.002119
540,1900-01-01 19:30:06.200,21.786137,39.060307,38.46,-1382,-24,16738,-13,-9,-1,94.8,3.57,-0.28,16711.542478179566,0.001974
541,1900-01-01 19:30:06.500,21.786119,39.060284,37.68,-1026,680,15726,-3,20,1,94.8,3.46,-0.3,16446.442654872208,0.003106
542,1900-01-01 19:30:06.700,21.786108,39.060268,37.31,-754,-910,16422,10,-22,-4,94.8,3.46,-0.3,16454.03707301038,0.002056
543,1900-01-01 19:30:06.900,21.786097,39.060249,37.15,-746,442,14278,4,13,-4,94.84,3.52,-0.11,15744.74515513033,0.002312
544,1900-01-01 19:30:07.100,21.786085,39.060234,37.02,-1526,-432,16744,12,-37,-8,94.91,3.46,0.03,16445.623490764952,0.002044
545,1900-01-01 19:30:07.300,21.786074,39.060219,36.6,-768,-10,15162,31,11,-1,94.98,3.48,0.19,16547.733379529658,0.001974
546,1900-01-01 19:30:07.600,21.786057,39.0602,35.26,-1146,-594,16696,22,-19,-7,95.01,3.41,0.43,16735.287030702522,0.002724
547,1900-01-01 19:30:07.800,21.786047,39.060184,35.21,-1458,440,16508,7,17,-3,95.05,3.41,0.71,16735.287030702522,0.001991
548,1900-01-01 19:30:08.000,21.786036,39.060169,35.1,-946,590,16944,-23,-9,-5,95.08,3.3,0.84,16754.18741688179,0.001974
549,1900-01-01 19:30:08.200,21.786024,39.060154,34.64,-1154,-178,17600,26,4,-3,95.12,3.17,0.83,16754.377696590225,0.002044
550,1900-01-01 19:30:08.500,21.786009,39.060135,33.37,-1076,-570,16714,10,4,-4,95.14,3.04,0.96,16744.663508115056,0.002575
551,1900-01-01 19:30:08.700,21.785999,39.06012,33.08,-750,548,16684,12,14,-4,95.2,2.91,1.05,16734.734536287095,0.001907
552,1900-01-01 19:30:08.900,21.785988,39.060104,32.92,-382,362,16418,-7,-21,-6,95.25,2.82,1.14,16734.734536287095,0.002056
553,1900-01-01 19:30:09.200,21.785975,39.060085,32.54,-574,778,17356,-16,22,-2,95.34,2.94,0.88,16697.79554312485,0.002437
554,1900-01-01 19:30:09.500,21.785959,39.060066,32.24,-916,-184,17122,3,-4,-4,95.38,2.65,0.59,17135.442918115656,0.002648
555,1900-01-01 19:30:09.700,21.78595,39.060051,31.5,-334,216,15182,-13,10,-3,95.44,2.59,0.52,17137.339466790054,0.001844
556,1900-01-01 19:30:10.000,21.785936,39.060032,30.79,-692,390,17290,-6,1,-4,95.5,2.48,0.46,17137.339466790054,0.002504
557,1900-01-01 19:30:10.300,21.785921,39.060013,30.76,-764,-248,16692,-1,6,-4,95.56,2.44,0.36,17302.33440897499,0.002575
558,1900-01-01 19:30:10.600,21.785908,39.059994,30.21,-120,758,18020,0,16,-2,95.6,2.26,0.47,17307.37126197968,0.002437
559,1900-01-01 19:30:10.900,21.785894,39.059975,30.0,-524,882,17312,-12,6,-4,95.65,2.26,0.48,16923.879697043463,0.002504
560,1900-01-01 19:30:11.200,21.785881,39.059956,29.51,-670,2,16226,2,-3,-1,95.7,2.09,0.45,16923.879697043463,0.002437
561,1900-01-01 19:30:11.500,21.785868,39.059937,29.27,-634,-328,16912,5,9,-1,95.75,2.13,0.47,16238.616936180248,0.002437
562,1900-01-01 19:30:11.800,21.785854,39.059921,28.53,-1080,-222,15804,1,-5,1,95.73,2.14,0.45,15818.19585161342,0.00227
563,1900-01-01 19:30:12.100,21.785841,39.059902,28.31,-640,500,14816,-9,15,2,95.7,2.21,0.5,15820.956987489726,0.002437
564,1900-01-01 19:30:12.400,21.78583,39.059883,27.79,-730,434,14442,5,-6,3,95.68,1.95,0.5,15825.906482726354,0.002312
565,1900-01-01 19:30:12.700,21.785816,39.059868,27.58,-1008,58,15930,0,-25,1,95.67,2.15,0.55,15841.792322840241,0.002196
566,1900-01-01 19:30:13.000,21.785805,39.059849,27.33,-184,400,15820,-8,16,2,95.71,2.13,0.68,15836.90525323682,0.002312
567,1900-01-01 19:30:13.300,21.785791,39.059834,26.59,-728,-52,16528,-10,10,-3,95.72,2.11,0.75,15936.349017262391,0.002196
568,1900-01-01 19:30:13.600,21.78578,39.059818,26.69,-256,72,15734,-13,3,-5,95.76,2.18,0.72,16306.91681465261,0.002056
569,1900-01-01 19:30:13.800,21.785772,39.059807,26.49,-444,814,16340,-9,4,-1,95.8,2.17,0.71,16346.18977009627,0.001443
570,1900-01-01 19:30:14.100,21.785759,39.059792,26.41,194,532,16300,2,0,0,95.81,2.03,0.67,16302.40877907311,0.002119
571,1900-01-01 19:30:14.300,21.785751,39.05978,26.27,-1286,-830,19498,13,10,-1,95.85,2.05,0.51,16341.549253360283,0.001525
572,1900-01-01 19:30:14.500,21.785744,39.059769,26.08,456,114,15058,-18,60,3,95.84,1.48,0.5,16301.16928321401,0.001377
573,1900-01-01 19:30:14.700,21.785736,39.059757,25.86,2782,-22,18012,-10,-70,-4,95.81,1.17,0.27,15639.230671615533,0.001525
574,1900-01-01 19:30:14.900,21.785728,39.059746,25.6,-1406,-328,15632,-6,-18,3,95.81,2.0,0.24,15638.900344973108,0.001443
575,1900-01-01 19:30:15.100,21.785721,39.059734,25.39,-464,-104,15066,-12,23,2,95.79,1.96,0.25,16990.351261819163,0.001463
576,1900-01-01 19:30:15.300,21.785713,39.059727,24.66,-894,4,17386,28,-33,-1,95.77,1.95,0.05,16995.485635897552,0.001146
577,1900-01-01 19:30:15.500,21.785707,39.059715,24.48,-266,164,16984,-1,20,6,95.74,2.11,0.2,16990.33748929079,0.001407
578,1900-01-01 19:30:15.700,21.7857,39.059704,24.12,-624,-30,17310,13,35,3,95.68,1.85,0.15,16987.301610320574,0.001377
579,1900-01-01 19:30:15.900,21.785692,39.059696,23.82,-292,666,16804,2,10,4,95.66,1.69,0.17,16987.17504472124,0.001214
580,1900-01-01 19:30:16.100,21.785685,39.059685,23.8,30,178,16584,8,11,-1,95.62,1.48,0.16,16807.479406502334,0.001377
581,1900-01-01 19:30:16.300,21.785679,39.059677,23.53,-276,204,17502,-10,-13,0,95.61,1.47,0.1,16681.233287739848,0.001062
582,1900-01-01 19:30:16.500,21.785671,39.059666,22.69,-492,54,16678,38,2,1,95.61,1.56,-0.13,16680.38440804048,0.001443
583,1900-01-01 19:30:16.700,21.785666,39.059658,22.65,-188,-154,15548,-1,5,10,95.55,1.59,0.11,16685.356214357547,0.000996
584,1900-01-01 19:30:16.900,21.785658,39.059647,22.57,-688,58,16826,4,-14,2,95.5,1.58,0.17,16453.45994008555,0.001443
585,1900-01-01 19:30:17.100,21.78565,39.059639,22.39,-638,86,16446,3,-4,3,95.47,1.63,0.25,16450.965929087568,0.001214
586,1900-01-01 19:30:17.300,21.785645,39.059631,22.55,-294,238,15554,-7,-3,3,95.46,1.48,0.25,16451.08847462684,0.000996
587,1900-01-01 19:30:17.500,21.785637,39.05962,22.41,-400,-18,16814,7,13,3,95.43,1.46,0.23,16450.848367181556,0.001443
588,1900-01-01 19:30:17.700,21.785631,39.059612,22.21,-390,494,15142,-8,9,4,95.41,1.41,0.21,15718.849194518027,0.001062
589,1900-01-01 19:30:17.900,21.785624,39.059601,21.87,28,-122,17148,1,-2,2,95.37,1.38,0.21,15847.417076609046,0.001377
590,1900-01-01 19:30:18.000,21.78562,39.059597,21.77,-466,-322,15714,3,-14,0,95.37,1.52,0.18,15849.220296279562,0.000607
591,1900-01-01 19:30:18.200,21.785614,39.059589,21.59,-1126,-108,15842,-1,3,2,95.36,1.72,0.21,15965.167835008813,0.001062
592,1900-01-01 19:30:18.400,21.785606,39.059582,21.52,-1118,516,15958,-8,0,3,95.34,1.9,0.17,15984.917015737054,0.001146
593,1900-01-01 19:30:18.600,21.785601,39.05957,21.38,-422,332,16048,-7,14,1,95.33,2.12,0.13,16090.158607049218,0.001358
594,1900-01-01 19:30:18.800,21.785595,39.059563,21.08,-908,188,16608,1,10,1,95.31,2.31,0.14,16648.89822180435,0.000984
595,1900-01-01 19:30:19.000,21.785587,39.059555,20.62,-1360,324,16956,-1,4,1,95.28,2.51,0.2,16666.740533169646,0.001214
596,1900-01-01 19:30:19.200,21.785582,39.059547,20.25,-1788,472,16610,10,-3,1,95.24,2.91,0.26,16705.027746160737,0.000996
597,1900-01-01 19:30:19.400,21.785576,39.05954,19.97,-1826,-2,16586,0,6,1,95.23,3.46,0.3,16687.161412295383,0.000984
598,1900-01-01 19:30:19.600,21.78557,39.059532,19.23,-2082,178,15996,7,-1,3,95.22,3.75,0.31,16687.161412295383,0.001062
599,1900-01-01 19:30:19.800,21.785564,39.059525,18.26,-2022,-306,15620,-2,4,0,95.19,4.21,0.3,16259.357059859409,0.000984
600,1900-01-01 19:30:20.000,21.785559,39.059517,17.38,-1762,300,17084,-3,-2,4,95.17,4.43,0.37,16259.945633365445,0.000996
601,1900-01-01 19:30:20.200,21.785553,39.059509,16.91,-1862,112,16152,-11,-5,-1,95.15,4.6,0.38,16250.518884023366,0.001062
602,1900-01-01 19:30:20.500,21.785545,39.059498,15.61,-758,296,17126,2,-1,2,95.12,4.51,0.38,16174.905996635653,0.001443
603,1900-01-01 19:30:20.700,21.785542,39.059494,15.31,-808,374,15802,-11,-3,1,95.12,4.04,0.43,16172.485399591493,0.000531
604,1900-01-01 19:30:20.900,21.785538,39.059486,15.02,-584,28,15904,-2,-6,2,95.1,3.59,0.41,16367.100781751178,0.000938
605,1900-01-01 19:30:21.100,21.785532,39.059479,14.53,-394,374,16354,-13,1,0,95.09,3.25,0.42,15908.911842109126,0.000984
606,1900-01-01 19:30:21.300,21.785528,39.059475,14.29,-8,-114,17030,6,-12,-1,95.09,3.0,0.38,16354.25008980846,0.000607
607,1900-01-01 19:30:21.600,21.785522,39.059467,13.16,-86,32,15828,4,-3,2,95.07,2.59,0.44,17030.234055937104,0.001062
608,1900-01-01 19:30:21.700,21.785521,39.059464,13.13,166,24,17850,-4,10,2,95.07,2.36,0.4,17030.01879035957,0.000329
609,1900-01-01 19:30:21.900,21.785517,39.05946,13.1,-1340,-604,18964,42,167,7,95.03,2.08,0.38,15828.9028046798,0.000607
610,1900-01-01 19:30:22.100,21.785513,39.059452,13.08,1196,1022,12286,3,96,16,94.87,0.07,0.77,15586.025022435964,0.000938
611,1900-01-01 19:30:22.300,21.785507,39.059448,12.96,900,526,15560,-25,-8,-3,94.84,-0.68,0.85,15591.450990847516,0.000785
612,1900-01-01 19:30:22.500,21.785503,39.059444,12.7,1648,-868,15124,0,-34,-3,94.87,-0.9,0.32,15159.882981078712,0.000607
613,1900-01-01 19:30:22.600,21.785503,39.059441,12.58,98,-412,15672,27,-178,-8,94.92,-0.65,0.28,15560.68340401539,0.00031
614,1900-01-01 19:30:22.800,21.7855,39.059437,12.37,-124,1338,14678,4,-266,-12,95.08,1.67,0.7,15672.862661300902,0.000531
615,1900-01-01 19:30:23.000,21.785494,39.059429,12.31,-2596,-108,21502,-19,-68,0,95.19,4.07,0.92,15675.762310012231,0.001062
616,1900-01-01 19:30:23.100,21.785492,39.059429,12.24,-368,82,17190,-28,76,7,95.13,3.71,0.71,16455.43387455949,0.000222
617,1900-01-01 19:30:23.300,21.785488,39.059422,12.27,-326,-160,14458,1,66,1,95.11,2.74,0.48,17193.286480484177,0.000849
618,1900-01-01 19:30:23.500,21.785484,39.059418,12.53,248,386,16452,14,115,8,95.03,1.51,0.57,16856.357139073672,0.000607
619,1900-01-01 19:30:23.700,21.78548,39.059414,12.42,514,134,17334,16,101,0,94.93,-0.68,0.76,16456.94175720386,0.000607
620,1900-01-01 19:30:23.800,21.785479,39.05941,12.46,548,362,16854,10,-78,3,94.92,-1.07,0.8,16463.0988577485,0.000428
621,1900-01-01 19:30:24.000,21.785475,39.059406,12.45,-372,318,15444,0,-28,-1,94.95,-0.29,0.88,16632.484119938308,0.000607
622,1900-01-01 19:30:24.200,21.785471,39.059402,12.58,552,-240,16158,-15,18,6,94.93,-0.39,0.84,16630.44773901172,0.000607
623,1900-01-01 19:30:24.300,21.785469,39.059399,12.63,396,-408,16624,-22,-6,23,94.81,-0.58,0.57,16163.423647235137,0.000381
624,1900-01-01 19:30:24.500,21.785465,39.059395,12.87,94,-964,16640,0,-2,49,94.48,-0.52,0.12,16652.515485655615,0.000607
625,1900-01-01 19:30:24.600,21.785463,39.059391,12.95,-198,-1444,15504,-19,-14,83,93.86,-0.5,-0.32,16677.22386969726,0.000469
626,1900-01-01 19:30:24.800,21.78546,39.059383,12.99,140,-1328,16796,-19,-11,115,92.95,-0.48,-0.78,16262.508293618177,0.000891
627,1900-01-01 19:30:24.900,21.785458,39.059383,13.1,54,-1844,15430,-18,-5,162,91.56,-0.38,-1.55,16292.777418230447,0.000222
628,1900-01-01 19:30:25.100,21.785452,39.059376,13.31,110,-2746,16198,-17,-20,212,89.36,-0.3,-2.52,16419.341521510538,0.000984
629,1900-01-01 19:30:25.300,21.785448,39.059372,13.38,-280,-2822,16188,-14,-34,295,84.66,0.05,-3.94,16421.63999118237,0.000607
630,1900-01-01 19:30:25.500,21.785444,39.059368,13.63,-328,-3666,15938,-20,-29,361,80.25,0.28,-5.29,16435.407266021735,0.000607
631,1900-01-01 19:30:25.800,21.785437,39.059357,13.98,-1268,-2472,16534,16,-38,434,72.97,0.76,-6.65,16569.984550385074,0.001377
632,1900-01-01 19:30:26.100,21.785429,39.059353,13.34,-1100,-3362,15220,-50,-46,491,64.12,0.82,-8.21,16869.088534950548,0.000981
633,1900-01-01 19:30:26.400,21.785419,39.059345,13.51,-1176,-4646,16452,-14,-43,546,53.77,0.56,-10.52,16948.321568816187,0.001385
634,1900-01-01 19:30:26.700,21.785412,39.059338,13.44,-1078,-3562,16528,-24,-28,573,41.68,-0.12,-11.48,16874.214766915822,0.001062
635,1900-01-01 19:30:27.000,21.785402,39.059334,13.52,-1456,-4150,16822,-26,-37,556,30.56,-0.58,-12.61,16898.148537635712,0.001186
636,1900-01-01 19:30:27.400,21.785389,39.05933,13.89,-1502,-3146,16216,8,-37,567,21.03,-0.97,-12.74,16672.547615766463,0.001503
637,1900-01-01 19:30:27.600,21.785381,39.059326,14.0,-1588,-3572,15842,-21,-46,545,12.25,-1.36,-12.81,16402.242041867325,0.000981
638,1900-01-01 19:30:27.900,21.785372,39.059326,13.74,-1728,-4066,14932,-10,-64,538,2.85,-1.27,-12.89,16402.242041867325,0.001001
639,1900-01-01 19:30:28.200,21.785362,39.05933,11.53,-1122,-3976,14874,-45,-74,539,-5.48,-1.34,-13.07,16371.817980908534,0.001186
640,1900-01-01 19:30:28.500,21.785357,39.059338,10.73,-490,-4038,16298,-8,-22,538,-12.8,-1.61,-13.22,16797.926895899982,0.000996
641,1900-01-01 19:30:28.700,21.785353,39.059345,11.23,-30,-3674,16406,-13,-26,522,-21.13,-2.11,-13.15,16794.060616777588,0.000849
642,1900-01-01 19:30:29.000,21.785349,39.059357,11.96,-332,-4542,16626,-10,-32,508,-28.58,-2.64,-13.32,16896.609245644522,0.001316
643,1900-01-01 19:30:29.200,21.785345,39.059364,12.25,-182,-4912,16236,-3,-38,513,-36.56,-3.08,-13.36,16904.11713163394,0.000849
644,1900-01-01 19:30:29.500,21.785343,39.059376,13.61,516,-2978,16994,9,-16,497,-45.69,-4.02,-12.73,16831.19247112337,0.001259
645,1900-01-01 19:30:29.700,21.785341,39.059387,14.05,264,-3058,16500,-11,-49,462,-52.09,-4.47,-12.26,16525.095340118314,0.001157
646,1900-01-01 19:30:30.000,21.785341,39.059399,15.47,1116,-3312,16048,9,-50,400,-59.55,-4.93,-11.61,16752.88703477702,0.001239
647,1900-01-01 19:30:30.200,21.785343,39.05941,15.98,346,-670,16070,18,-10,318,-64.81,-5.13,-9.92,16610.011198069675,0.001157
648,1900-01-01 19:30:30.500,21.785345,39.059422,15.69,1092,-1008,16478,-5,-18,187,-69.05,-5.35,-7.92,16583.544373866524,0.001259
649,1900-01-01 19:30:30.800,21.785351,39.059437,16.87,2002,-1782,16754,-3,-9,172,-71.78,-5.26,-7.27,16589.864134464755,0.001686
650,1900-01-01 19:30:31.000,21.785357,39.059444,17.85,1782,-1498,16518,17,4,142,-74.32,-5.43,-6.47,16589.864134464755,0.000984
651,1900-01-01 19:30:31.300,21.785366,39.05946,20.38,1638,-842,16184,-1,3,115,-76.15,-5.55,-5.62,16580.94062470522,0.001932
652,1900-01-01 19:30:31.500,21.785372,39.059467,20.65,1056,-610,16472,-10,-17,93,-77.8,-5.57,-4.83,16531.35420950141,0.000984
653,1900-01-01 19:30:31.700,21.785379,39.059479,20.91,1066,-958,15564,-6,5,84,-79.19,-5.32,-4.18,16234.034618664578,0.001463
654,1900-01-01 19:30:32.000,21.785389,39.059494,21.18,1118,-552,16936,4,-12,74,-80.23,-5.02,-3.64,16134.719086491714,0.001907
655,1900-01-01 19:30:32.200,21.785395,39.059502,21.36,1530,-44,16090,14,12,50,-81.36,-4.92,-2.94,16030.11403577654,0.001062
656,1900-01-01 19:30:32.500,21.785406,39.059517,21.9,1022,206,15994,11,-18,16,-81.95,-4.96,-1.88,16128.854888056994,0.001974
657,1900-01-01 19:30:32.700,21.785414,39.059528,21.99,898,-142,15552,4,-9,4,-82.18,-4.79,-1.16,16040.127056853384,0.001443
658,1900-01-01 19:30:33.000,21.785425,39.059544,22.76,1632,988,16146,-6,13,-6,-82.19,-4.68,-0.46,16030.473230694095,0.002056
659,1900-01-01 19:30:33.200,21.785433,39.059551,23.37,1198,294,15672,-15,21,-12,-82.02,-4.54,0.05,16120.072084206075,0.001146
660,1900-01-01 19:30:33.500,21.785444,39.059566,23.87,1040,380,16082,6,5,-12,-81.88,-4.77,0.41,16194.842388859486,0.001974
661,1900-01-01 19:30:33.800,21.785456,39.059586,25.02,804,738,16156,9,-4,-15,-81.72,-4.73,0.73,16131.036172546388,0.002459
662,1900-01-01 19:30:34.100,21.785469,39.059601,25.92,1488,244,16662,-2,19,-2,-81.58,-4.63,0.67,16120.072084206075,0.002119
663,1900-01-01 19:30:34.400,21.78548,39.05962,26.12,1250,592,15950,-14,4,3,-81.57,-4.5,0.65,16191.078654617178,0.002312
664,1900-01-01 19:30:34.700,21.785494,39.059635,26.79,632,-338,14968,-4,-27,3,-81.55,-4.18,0.5,16710.60381913233,0.002196
665,1900-01-01 19:30:35.000,21.785507,39.059654,27.24,1034,256,16670,15,4,2,-81.6,-3.94,0.41,16703.99928160918,0.002437
666,1900-01-01 19:30:35.300,21.785519,39.059673,27.76,1342,148,16908,2,-12,1,-81.61,-3.6,0.61,16692.928083472954,0.002373
667,1900-01-01 19:30:35.700,21.785538,39.059696,28.78,862,492,16884,-3,-10,0,-81.6,-3.41,0.92,16694.234933053984,0.003179
668,1900-01-01 19:30:36.000,21.785551,39.059715,29.16,388,-54,15046,-3,-2,0,-81.6,-3.38,1.03,16040.217704258255,0.002437
669,1900-01-01 19:30:36.300,21.785564,39.059734,29.63,424,960,15840,-11,-7,2,-81.6,-3.19,1.12,16044.728230792816,0.002437
670,1900-01-01 19:30:36.500,21.785574,39.05975,29.98,1144,312,16014,-2,25,0,-81.59,-2.95,1.08,15867.051647990562,0.001991
671,1900-01-01 19:30:36.800,21.785589,39.059769,30.15,872,542,16634,-16,1,1,-81.6,-2.9,1.17,15867.051647990562,0.002575
672,1900-01-01 19:30:37.000,21.785599,39.05978,30.31,1054,84,15774,-8,-20,-5,-81.58,-2.92,1.0,16047.162241343483,0.001589
673,1900-01-01 19:30:37.300,21.785614,39.059803,30.79,266,164,15334,-5,5,-2,-81.55,-2.71,0.85,16042.556030757692,0.002902
674,1900-01-01 19:30:37.500,21.785624,39.059814,31.01,1018,-74,17816,-15,-7,-2,-81.52,-2.71,0.66,16041.174645268344,0.001589
675,1900-01-01 19:30:37.800,21.785639,39.059837,31.39,748,402,16018,-6,7,-2,-81.48,-2.72,0.53,16027.808459050164,0.002902
676,1900-01-01 19:30:38.000,21.785648,39.059849,31.49,1162,368,16008,-12,-2,-4,-81.45,-2.81,0.44,16027.808459050164,0.001593
677,1900-01-01 19:30:38.300,21.785664,39.059872,31.92,698,274,15582,12,15,-1,-81.39,-2.78,0.31,16025.55284537791,0.002967
678,1900-01-01 19:30:38.600,21.785679,39.059895,32.43,232,206,14664,5,1,0,-81.36,-2.73,0.36,15599.565506769732,0.002902
679,1900-01-01 19:30:38.900,21.785694,39.059914,32.62,-550,-338,16892,-2,0,-1,-81.31,-2.68,0.43,15598.98599268555,0.002575
680,1900-01-01 19:30:39.200,21.785707,39.059937,32.94,1432,246,15156,-33,-1,-1,-81.27,-2.81,0.33,15779.050541778488,0.00278
681,1900-01-01 19:30:39.500,21.785725,39.059959,33.44,850,-162,16532,3,-6,-2,-81.22,-2.64,0.2,16549.15502374668,0.003028
682,1900-01-01 19:30:39.700,21.785734,39.059975,33.61,8,354,15776,-1,-4,-2,-81.17,-2.57,0.22,15799.884809706684,0.001932
683,1900-01-01 19:30:40.000,21.785749,39.059998,34.19,732,178,17124,-10,30,-3,-81.15,-2.64,0.24,16548.78992555045,0.002902
684,1900-01-01 19:30:40.200,21.785761,39.060013,34.39,922,140,15240,4,11,-1,-81.08,-2.63,0.0,17132.46555519666,0.002044
685,1900-01-01 19:30:40.400,21.785772,39.060028,34.45,520,-284,17866,18,4,-2,-81.04,-2.59,-0.09,17139.99124853919,0.001974
686,1900-01-01 19:30:40.700,21.785788,39.060051,35.39,514,-110,17150,4,11,-3,-81.01,-2.5,-0.07,17175.11816553237,0.002967
687,1900-01-01 19:30:40.900,21.785799,39.060066,35.44,1280,-114,16792,14,7,0,-81.01,-2.63,0.08,17873.90433005615,0.001974
688,1900-01-01 19:30:41.200,21.785814,39.060089,35.46,1324,-76,18854,11,-6,-3,-80.98,-2.5,0.32,17158.05338609249,0.002902
689,1900-01-01 19:30:41.500,21.785831,39.060112,36.03,494,294,17972,-11,12,-3,-80.94,-2.46,0.5,16841.100320347243,0.003035
690,1900-01-01 19:30:41.900,21.785852,39.060143,36.24,-488,-724,15262,1,6,-3,-80.85,-2.16,0.3,16459.59039587559,0.003962
691,1900-01-01 19:30:42.300,21.785875,39.060177,36.81,1618,-744,16452,25,-16,-2,-80.82,-2.13,0.29,15986.434999711475,0.004343
692,1900-01-01 19:30:42.600,21.785892,39.0602,36.98,428,410,15978,8,-8,0,-80.85,-2.28,0.49,15984.72245614543,0.003035
693,1900-01-01 19:30:43.000,21.785913,39.060234,37.32,330,524,15374,-10,-7,5,-80.88,-2.5,0.38,15995.778568109776,0.004216
694,1900-01-01 19:30:43.400,21.785936,39.060265,37.83,712,-178,16714,-10,0,9,-81.01,-2.57,0.2,15760.044796890648,0.004097
695,1900-01-01 19:30:43.800,21.785961,39.060299,38.26,1212,248,15060,-8,14,6,-81.18,-2.64,-0.02,15392.476214046914,0.004478
696,1900-01-01 19:30:44.200,21.785984,39.060333,38.93,1074,72,15742,5,-2,5,-81.32,-2.52,-0.07,15758.257898638416,0.004343
697,1900-01-01 19:30:44.600,21.786009,39.060368,39.34,316,270,15212,-15,-7,-2,-81.38,-2.45,0.08,15521.428542502137,0.004559
698,1900-01-01 19:30:45.000,21.786034,39.060402,40.33,660,-742,16516,3,15,0,-81.39,-2.52,-0.04,15768.99717800723,0.004478
699,1900-01-01 19:30:45.500,21.786064,39.060444,40.58,908,162,15494,-22,-17,-4,-81.36,-2.54,0.03,15560.847020647687,0.005471
700,1900-01-01 19:30:46.000,21.786097,39.060486,40.8,944,162,16410,3,6,-2,-81.28,-2.32,-0.01,16435.899975358818,0.005681
701,1900-01-01 19:30:46.500,21.786129,39.060532,41.95,-180,-30,15546,-7,-2,-3,-81.23,-2.28,0.12,16435.899975358818,0.005935
702,1900-01-01 19:30:47.000,21.786161,39.060577,42.66,1438,294,17380,11,9,-3,-81.15,-2.33,0.11,16595.26305907803,0.005852
703,1900-01-01 19:30:47.600,21.7862,39.060631,42.83,-128,114,16568,-5,-6,-1,-81.08,-2.32,0.09,16925.971286753385,0.007064
704,1900-01-01 19:30:48.000,21.786226,39.060669,43.21,1206,-312,16902,19,8,-1,-81.04,-2.49,0.12,16926.328603687216,0.004874
705,1900-01-01 19:30:48.400,21.786253,39.060707,43.81,900,-78,17978,-13,-13,-3,-81.02,-2.36,0.44,16591.218159014123,0.00494
706,1900-01-01 19:30:48.900,21.786287,39.060757,43.91,246,248,15552,18,-8,9,-81.05,-2.08,0.41,16267.289018149275,0.006399
707,1900-01-01 19:30:49.300,21.786314,39.060795,44.29,870,118,14534,-37,5,7,-81.22,-2.01,0.25,16087.848084812338,0.00494
708,1900-01-01 19:30:49.700,21.786341,39.060833,44.28,838,16,16244,9,-29,-2,-81.26,-2.1,-0.21,15581.335244451933,0.00494
709,1900-01-01 19:30:50.100,21.786369,39.060871,44.87,300,-296,16066,19,-7,-1,-81.24,-2.04,-0.07,15942.367578248846,0.005009
710,1900-01-01 19:30:50.500,21.786398,39.060909,45.44,84,494,15578,-7,9,-1,-81.16,-1.95,-0.02,15945.84096245789,0.005079
711,1900-01-01 19:30:50.900,21.786427,39.060947,45.47,354,400,15938,-2,14,-2,-81.11,-1.92,0.03,15583.360998192913,0.005079
712,1900-01-01 19:30:51.400,21.786463,39.060997,46.18,42,468,15104,10,38,9,-81.23,-2.03,-0.06,15583.360998192913,0.006533
713,1900-01-01 19:30:51.900,21.786499,39.061047,46.83,68,-404,15554,-19,-15,5,-81.31,-1.45,-0.39,15943.767559770808,0.006533
714,1900-01-01 19:30:52.400,21.786533,39.061096,46.47,1182,-470,18528,-11,31,2,-81.36,-1.13,-0.54,15564.504617879747,0.006316
715,1900-01-01 19:30:52.900,21.78657,39.061146,46.95,518,-242,17188,0,13,-2,-81.33,-1.28,-0.64,15567.866135087364,0.006601
716,1900-01-01 19:30:53.400,21.786606,39.061199,48.15,582,-156,15160,-1,-2,1,-81.32,-1.12,-0.39,16068.367185249408,0.00678
717,1900-01-01 19:30:53.900,21.786644,39.061249,47.71,316,-428,14238,7,19,2,-81.26,-0.88,-0.24,16017.138446052091,0.006671
718,1900-01-01 19:30:54.300,21.786673,39.061291,47.5,1072,170,16056,-11,8,-3,-81.19,-0.88,0.07,16011.87859059642,0.005404
719,1900-01-01 19:30:54.700,21.786703,39.061329,47.46,86,-84,16008,-9,-13,-1,-81.12,-0.93,-0.09,16039.941895156602,0.00515
720,1900-01-01 19:30:55.100,21.786732,39.061371,47.59,-70,-482,16312,-12,-9,-1,-81.08,-0.69,-0.33,16056.220850499036,0.005404
721,1900-01-01 19:30:55.400,21.786755,39.061401,47.29,-400,-864,16034,30,25,6,-81.14,-0.79,-0.52,16034.221153520366,0.004017
722,1900-01-01 19:30:55.800,21.786783,39.061443,47.19,-6,26,19262,19,-27,5,-81.26,-0.8,-0.15,16041.395824553423,0.005339
723,1900-01-01 19:30:56.200,21.786814,39.061481,47.7,278,276,15770,-10,-7,4,-81.35,-0.64,-0.08,16041.857623105872,0.005223
724,1900-01-01 19:30:56.600,21.786842,39.061523,47.33,-492,-502,14816,7,11,4,-81.41,-0.69,-0.36,15774.69302395454,0.005339
725,1900-01-01 19:30:56.900,21.786865,39.061554,47.51,630,-528,17134,-21,38,6,-81.48,-0.62,-0.63,15787.501638954784,0.004097
726,1900-01-01 19:30:57.400,21.786901,39.061604,48.22,548,-266,15606,-1,30,6,-81.61,-0.51,-0.44,15624.009856627716,0.006533
727,1900-01-01 19:30:58.000,21.786947,39.061665,48.15,564,-768,16748,7,24,4,-81.7,-0.69,-1.03,16764.783088367116,0.008114
728,1900-01-01 19:30:58.500,21.786985,39.061718,48.46,-182,-512,14820,2,36,-2,-81.68,-0.41,-0.38,16758.058240738992,0.006914
729,1900-01-01 19:30:59.100,21.787031,39.061779,48.16,468,106,17472,-12,4,-2,-81.59,-0.18,0.06,16754.551978492294,0.008114
730,1900-01-01 19:30:59.700,21.787075,39.06184,47.95,516,588,17446,-2,-15,-6,-81.5,0.1,0.4,17446.47895708472,0.007975
731,1900-01-01 19:31:00.200,21.787113,39.06189,47.63,74,-22,16594,-2,22,-2,-81.35,0.65,0.24,17446.985183692912,0.006671
732,1900-01-01 19:31:00.600,21.787142,39.061932,47.54,-442,520,17524,-1,-13,-7,-81.28,0.68,0.3,16604.276316660114,0.005404
733,1900-01-01 19:31:00.900,21.787165,39.061962,47.42,-272,170,15670,-1,-10,-4,-81.21,0.6,0.22,16604.276316660114,0.004017
734,1900-01-01 19:31:01.300,21.787193,39.062,47.15,-266,1332,13288,10,-9,-3,-81.12,0.79,0.39,17533.731262911497,0.005009
735,1900-01-01 19:31:01.600,21.787216,39.062031,46.85,370,790,18226,26,-13,-6,-81.06,1.15,0.57,18045.22640478639,0.004097
736,1900-01-01 19:31:01.900,21.787239,39.062061,46.68,1020,130,18142,-35,-45,-9,-80.98,0.99,0.62,18045.22640478639,0.004017
737,1900-01-01 19:31:02.100,21.787252,39.06208,46.46,-340,512,18036,2,-11,-7,-80.9,1.1,0.48,18038.811047294665,0.002437
738,1900-01-01 19:31:02.400,21.787275,39.062111,46.26,-1158,-544,17162,2,-13,-2,-80.82,1.3,0.65,17164.954179956323,0.004097
739,1900-01-01 19:31:02.700,21.787296,39.062138,45.79,-172,268,15506,-19,-2,-7,-80.74,0.93,0.68,15725.663737979392,0.003637
740,1900-01-01 19:31:02.900,21.78731,39.062157,45.55,58,616,15720,-29,-14,-11,-80.59,0.94,0.31,15724.863497022796,0.002504
741,1900-01-01 19:31:03.200,21.787331,39.062187,45.39,-326,-362,15412,-6,12,-5,-80.5,1.03,-0.03,15722.424749382648,0.003879
742,1900-01-01 19:31:03.400,21.787346,39.062206,45.32,-628,216,17134,11,10,13,-80.59,1.14,-0.18,16793.74943245254,0.002575
743,1900-01-01 19:31:03.700,21.787367,39.062233,45.0,126,-280,17436,2,-15,13,-80.75,0.84,-0.15,16792.560495648064,0.003637
744,1900-01-01 19:31:03.900,21.78738,39.062252,44.95,-110,230,16792,6,-17,11,-80.93,0.74,-0.12,17134.536585504728,0.002437
745,1900-01-01 19:31:04.200,21.787401,39.062283,44.89,278,-82,16146,6,22,12,-81.12,0.59,-0.22,16794.8069354786,0.003962
746,1900-01-01 19:31:04.400,21.787416,39.062302,44.77,108,-530,17838,2,-14,9,-81.29,0.37,-0.36,16147.502717138648,0.002575
747,1900-01-01 19:31:04.700,21.787437,39.062328,44.82,166,-348,16016,15,-8,4,-81.43,0.34,-0.21,16018.010987635138,0.003558
748,1900-01-01 19:31:05.000,21.787458,39.062359,44.77,-990,-192,14766,-14,-7,-3,-81.39,0.41,0.04,15971.519276512176,0.003962
749,1900-01-01 19:31:05.300,21.787479,39.062386,45.0,410,-46,15822,-25,45,-3,-81.36,0.19,0.14,15970.928964841087,0.003637
750,1900-01-01 19:31:05.500,21.787495,39.062405,44.93,-262,50,15970,-25,-31,-4,-81.27,-0.02,-0.04,15934.259694130757,0.002648
751,1900-01-01 19:31:05.800,21.787516,39.062431,44.69,322,232,17656,-7,13,-3,-81.18,-0.23,-0.27,15970.259108730828,0.003558
752,1900-01-01 19:31:06.100,21.787537,39.062462,44.45,-76,880,15934,19,7,-4,-81.12,-0.68,-0.15,16153.844867399217,0.003962
753,1900-01-01 19:31:06.400,21.78756,39.062489,44.63,-238,-384,17108,12,3,-7,-81.03,-0.79,0.14,16154.635867143525,0.003783
754,1900-01-01 19:31:06.600,21.787573,39.062508,44.78,1100,240,16152,2,-7,-6,-80.91,-0.94,0.48,16154.635867143525,0.002437
755,1900-01-01 19:31:06.900,21.787594,39.062534,45.19,166,626,15768,1,5,-7,-80.81,-0.71,0.51,16844.125385427407,0.003558
756,1900-01-01 19:31:07.100,21.787609,39.062553,45.06,372,-30,16840,15,0,-4,-80.7,-0.87,0.56,16164.700430258521,0.002575
757,1900-01-01 19:31:07.400,21.78763,39.062584,44.79,962,-24,16852,-1,-3,-6,-80.63,-1.0,0.63,16564.195120801975,0.003962
758,1900-01-01 19:31:07.600,21.787643,39.062603,44.86,594,434,15916,-11,-15,-4,-80.54,-1.07,0.57,16570.667216500366,0.002437
759,1900-01-01 19:31:07.900,21.787666,39.06263,45.46,252,-382,16560,-10,-16,-4,-80.44,-1.12,0.51,15927.098543049202,0.003783
760,1900-01-01 19:31:08.200,21.787687,39.06266,45.61,858,378,15902,9,12,-4,-80.38,-1.23,0.52,15919.542832631847,0.003879
761,1900-01-01 19:31:08.500,21.78771,39.062687,45.39,-24,-222,15102,-6,-2,-5,-80.31,-1.17,0.55,15905.07114099148,0.003783
762,1900-01-01 19:31:08.700,21.787724,39.062706,45.65,-66,-624,16474,0,-1,-5,-80.24,-1.21,0.44,15285.19571350004,0.002504
763,1900-01-01 19:31:09.000,21.787746,39.062737,46.01,220,516,14486,-4,3,-1,-80.17,-1.11,0.36,15284.290758815077,0.004029
764,1900-01-01 19:31:09.200,21.78776,39.062756,46.1,634,-444,15282,-14,4,-3,-80.11,-1.1,0.29,15967.392022493843,0.002504
765,1900-01-01 19:31:09.500,21.787783,39.062786,46.54,144,336,16242,-5,17,-3,-80.05,-1.08,0.26,15968.258264444497,0.004017
766,1900-01-01 19:31:09.700,21.787796,39.062805,46.41,-12,-154,15966,1,6,0,-80.03,-1.21,0.15,16252.528418679969,0.002437
767,1900-01-01 19:31:09.900,21.787811,39.062824,46.57,496,-1056,16394,-11,-14,-1,-80.03,-1.3,-0.04,16397.562989664042,0.002575
768,1900-01-01 19:31:10.200,21.787832,39.062855,46.5,778,-310,17286,-3,-21,-2,-80.01,-1.18,-0.14,16622.294065501308,0.003962
769,1900-01-01 19:31:10.400,21.787848,39.062874,46.65,-22,-664,16612,4,-1,2,-80.01,-1.01,-0.29,16626.507630888696,0.002648
770,1900-01-01 19:31:10.600,21.787861,39.062897,46.82,668,320,18328,-2,0,5,-80.08,-1.1,-0.34,16618.37224279201,0.00278
771,1900-01-01 19:31:10.900,21.787884,39.062923,47.32,174,-486,16390,5,-7,5,-80.13,-1.11,-0.4,16420.764781215275,0.003708
772,1900-01-01 19:31:11.100,21.787899,39.062946,47.45,120,-426,15864,6,-2,4,-80.18,-0.98,-0.3,16400.862782183136,0.002902
773,1900-01-01 19:31:11.300,21.787912,39.062965,47.42,778,-438,16414,13,5,2,-80.19,-0.86,-0.21,15990.564968130426,0.002437
774,1900-01-01 19:31:11.500,21.787928,39.062984,47.67,418,-76,15980,6,-14,4,-80.26,-1.08,-0.1,15990.240773671921,0.002648
775,1900-01-01 19:31:11.800,21.787951,39.063015,47.62,382,-466,15276,-16,13,5,-80.3,-0.98,-0.09,15986.520071610332,0.004097
776,1900-01-01 19:31:12.000,21.787966,39.063038,47.73,-46,24,16080,-12,7,5,-80.34,-1.12,-0.16,15982.016018012246,0.002902
777,1900-01-01 19:31:12.200,21.787979,39.063057,47.99,-98,-250,15654,6,-9,2,-80.36,-1.08,-0.3,15656.063745399097,0.002437
778,1900-01-01 19:31:12.500,21.788002,39.063087,47.79,-44,-1226,16632,9,-7,5,-80.4,-1.01,-0.27,16080.075870467776,0.004017
779,1900-01-01 19:31:12.700,21.788017,39.063107,47.77,-152,42,14274,0,31,4,-80.43,-0.99,-0.21,15655.66440621413,0.002654
780,1900-01-01 19:31:12.900,21.788033,39.063129,47.83,1798,-18,19130,2,-32,-2,-80.44,-0.97,-0.14,16632.09716181336,0.002885
781,1900-01-01 19:31:13.100,21.788048,39.063148,47.58,438,-224,15370,7,28,3,-80.47,-1.02,-0.11,16579.796259303068,0.002575
782,1900-01-01 19:31:13.300,21.788063,39.063168,47.63,-44,-36,17598,11,-2,4,-80.5,-0.98,0.04,17019.674967519208,0.002654
783,1900-01-01 19:31:13.500,21.78808,39.063187,47.66,1022,274,16574,-5,-1,1,-80.53,-1.03,0.1,17019.674967519208,0.002724
784,1900-01-01 19:31:13.700,21.788095,39.06321,47.58,6,-272,17014,-14,13,0,-80.52,-0.91,0.05,17020.700220613722,0.002902
785,1900-01-01 19:31:13.900,21.788111,39.063229,47.84,562,238,18318,21,27,0,-80.52,-1.04,-0.05,16585.23331159378,0.002648
786,1900-01-01 19:31:14.100,21.788126,39.063248,47.83,414,598,15836,-15,6,-3,-80.51,-1.11,0.0,16660.844996578056,0.002575
787,1900-01-01 19:31:14.300,21.788141,39.063267,48.28,604,-148,16456,-21,-7,-6,-80.48,-1.12,0.04,16463.76311782941,0.002575
788,1900-01-01 19:31:14.500,21.788157,39.06329,48.29,128,606,16654,-24,8,-4,-80.44,-1.01,0.04,15842.102006993895,0.002967
789,1900-01-01 19:31:14.600,21.788164,39.063297,48.32,446,-764,14922,12,15,-2,-80.41,-1.1,-0.11,15973.198552575499,0.001062
790,1900-01-01 19:31:14.800,21.788179,39.06332,48.52,-170,-314,14828,9,0,-1,-80.38,-1.01,-0.03,15159.792742646583,0.002902
791,1900-01-01 19:31:15.000,21.788195,39.063339,48.82,-78,-112,15972,1,-12,-4,-80.35,-0.95,0.14,15159.453024433302,0.002648
792,1900-01-01 19:31:15.200,21.788212,39.063358,48.89,774,-518,15156,-25,13,-1,-80.32,-1.11,0.11,15972.839572223844,0.002724
793,1900-01-01 19:31:15.400,21.788227,39.063381,49.12,-468,-144,16042,8,11,1,-80.27,-0.76,-0.01,15991.391309076269,0.002902
794,1900-01-01 19:31:15.600,21.788242,39.0634,49.09,1064,-90,17780,18,32,-1,-80.24,-0.87,0.13,16061.306796148314,0.002575
795,1900-01-01 19:31:15.800,21.788258,39.063423,49.06,960,-154,14616,9,-36,-1,-80.21,-1.13,0.32,16187.164050567968,0.002967
796,1900-01-01 19:31:16.000,21.788275,39.063442,49.09,172,636,16186,-16,-10,-3,-80.16,-0.6,0.47,17783.89664837265,0.002724
797,1900-01-01 19:31:16.100,21.788282,39.063454,49.06,-644,68,18370,-1,-5,-3,-80.12,-0.61,0.42,16187.056681188214,0.001463
798,1900-01-01 19:31:16.300,21.788298,39.063473,49.07,366,176,18268,11,0,-5,-80.09,-0.98,0.41,16189.626555297686,0.002648
799,1900-01-01 19:31:16.500,21.788313,39.063492,49.18,-488,-586,13462,15,1,1,-80.05,-0.92,0.5,15377.818050685864,0.002575
800,1900-01-01 19:31:16.700,21.78833,39.063515,49.2,-294,314,15374,6,-11,-2,-80.03,-0.78,0.58,15380.016514945619,0.003035
801,1900-01-01 19:31:16.900,21.788345,39.063534,49.29,262,330,14868,6,-32,-3,-80.01,-0.71,0.55,15380.016514945619,0.002575
802,1900-01-01 19:31:17.000,21.788353,39.063545,49.44,-924,392,17632,30,68,1,-79.98,-0.39,0.61,15379.43809116575,0.001443
803,1900-01-01 19:31:17.200,21.788368,39.063564,49.62,832,-264,16498,4,24,2,-80.02,-1.09,0.75,16500.624351823782,0.002575
804,1900-01-01 19:31:17.400,21.788383,39.063587,49.61,422,-136,15010,-1,-14,0,-80.01,-1.11,0.8,16629.112303427384,0.002902
805,1900-01-01 19:31:17.600,21.788401,39.063606,49.6,136,134,16628,3,-17,-2,-79.98,-0.67,0.8,16635.44901708397,0.002803
806,1900-01-01 19:31:17.700,21.788408,39.063618,49.74,-838,-854,22116,-62,-13,-9,-79.94,-0.17,1.18,16633.910063481766,0.001463
807,1900-01-01 19:31:17.900,21.788424,39.063641,49.84,8050,-1256,20378,-23,102,12,-79.95,-0.6,0.99,17425.753929170467,0.002967
808,1900-01-01 19:31:18.100,21.788439,39.06366,49.81,676,254,14894,-15,-28,-2,-80.01,-0.88,0.76,17425.753929170467,0.002575
809,1900-01-01 19:31:18.300,21.788454,39.063683,49.72,444,58,17420,8,1,-3,-79.93,-0.57,0.66,17397.36117921336,0.002902
810,1900-01-01 19:31:18.500,21.788469,39.063702,49.66,-248,88,16218,-11,-8,2,-79.92,-0.62,0.81,16290.28962296251,0.002575
811,1900-01-01 19:31:18.600,21.788479,39.063713,49.51,738,148,17384,-25,-8,-4,-79.89,-0.55,0.73,17389.765840861688,0.001589
812,1900-01-01 19:31:18.900,21.788502,39.063744,49.58,136,-212,16284,15,16,-1,-79.84,-0.45,0.49,17392.033693619618,0.004097
813,1900-01-01 19:31:19.100,21.788517,39.063766,49.5,828,40,17770,20,-30,0,-79.83,-0.4,0.81,17392.033693619618,0.002818
814,1900-01-01 19:31:19.400,21.78854,39.063797,49.68,526,52,17584,0,-14,-1,-79.85,-0.31,0.92,17587.96918350723,0.004097
815,1900-01-01 19:31:19.700,21.788563,39.063828,49.52,370,800,15782,-28,-7,-1,-79.85,-0.14,0.76,17587.96918350723,0.004097
816,1900-01-01 19:31:20.000,21.788588,39.063858,49.92,260,262,17890,-13,-4,-1,-79.85,-0.14,0.37,16647.0428605203,0.004162
817,1900-01-01 19:31:20.200,21.788603,39.063881,49.78,314,-584,16644,-11,9,-1,-79.86,-0.31,0.14,15784.263302416113,0.002902
818,1900-01-01 19:31:20.500,21.788628,39.063911,49.77,-436,-62,14688,17,15,3,-79.87,-0.39,0.09,15330.33032912207,0.004162
819,1900-01-01 19:31:20.700,21.788643,39.063931,49.9,158,-140,14598,0,-21,-1,-79.87,-0.3,0.18,15328.939689358818,0.002654
820,1900-01-01 19:31:20.900,21.788658,39.063953,49.77,348,58,15328,-13,23,3,-79.88,-0.11,0.24,15332.399420834301,0.002818
821,1900-01-01 19:31:21.100,21.788673,39.063972,49.88,-362,376,16026,-16,20,2,-79.87,-0.32,0.05,16026.17097125823,0.002575
822,1900-01-01 19:31:21.300,21.788691,39.063992,50.0,-570,-526,16074,-9,-6,-1,-79.84,-0.13,-0.1,16074.170460711184,0.002876
823,1900-01-01 19:31:21.500,21.788706,39.064014,49.96,-46,362,17304,4,14,1,-79.81,-0.16,0.01,16298.170940323334,0.002818
824,1900-01-01 19:31:21.700,21.788721,39.064034,50.22,430,-248,16726,-17,-7,-2,-79.79,-0.23,0.04,16727.901721375576,0.002654
825,1900-01-01 19:31:21.900,21.788736,39.064056,50.05,162,262,16296,1,-4,0,-79.76,-0.28,0.05,16728.115135902193,0.002818
826,1900-01-01 19:31:22.100,21.788754,39.064075,50.03,-250,-372,17000,27,-31,-3,-79.73,-0.15,0.02,16706.009098525,0.002803
827,1900-01-01 19:31:22.300,21.788769,39.064098,49.93,-548,640,16704,17,5,0,-79.72,0.11,0.22,16698.958290863535,0.002902
828,1900-01-01 19:31:22.500,21.788784,39.064117,49.71,-500,-68,16284,-4,-21,-3,-79.67,0.38,0.36,16703.49101236026,0.002575
829,1900-01-01 19:31:22.700,21.788799,39.06414,49.43,-314,14,16696,-2,29,1,-79.65,0.63,0.38,16293.22423585952,0.002902
830,1900-01-01 19:31:22.900,21.788815,39.064159,49.09,-756,394,16254,-3,8,-2,-79.58,0.9,0.39,16261.69462264004,0.002648
831,1900-01-01 19:31:23.200,21.788839,39.06419,49.04,-802,-374,15524,2,12,-1,-79.55,1.08,0.39,15720.256232008434,0.004167
832,1900-01-01 19:31:23.500,21.788862,39.06422,48.91,-322,46,15702,-1,-1,-1,-79.55,1.05,0.5,15720.256232008434,0.004017
833,1900-01-01 19:31:23.700,21.788877,39.064243,48.65,-808,620,15666,0,-18,-2,-79.53,1.17,0.56,15716.593396789267,0.002902
834,1900-01-01 19:31:23.900,21.788893,39.064262,48.34,-426,-98,17912,4,5,0,-79.51,1.2,0.52,16799.687973292836,0.002648
835,1900-01-01 19:31:24.200,21.788916,39.064293,48.21,-670,-102,16794,-2,21,2,-79.51,1.18,0.55,16799.687973292836,0.004097
836,1900-01-01 19:31:24.400,21.788931,39.064312,48.19,-82,-502,16826,17,-1,2,-79.5,1.13,0.54,16794.486118961784,0.002575
837,1900-01-01 19:31:24.600,21.788946,39.064331,48.04,386,34,15294,1,-14,1,-79.49,1.15,0.56,15764.54325377047,0.002575
838,1900-01-01 19:31:24.800,21.788961,39.064354,47.98,728,296,15764,-1,-8,-2,-79.47,1.25,0.43,15765.240879859717,0.002902
839,1900-01-01 19:31:25.000,21.788977,39.064373,47.88,-536,-956,13994,-8,26,1,-79.45,1.41,0.32,15764.828448162702,0.002648
840,1900-01-01 19:31:25.200,21.78899,39.064392,47.64,-442,-180,17442,-14,-29,-5,-79.43,1.32,0.15,16071.669857236366,0.002437
841,1900-01-01 19:31:25.400,21.789005,39.064411,47.27,-158,402,19086,6,9,-1,-79.41,1.36,0.0,16076.426841807852,0.002575
842,1900-01-01 19:31:25.500,21.789013,39.064423,47.14,-206,106,16070,10,0,-1,-79.42,1.12,0.07,16815.976926720614,0.001525
843,1900-01-01 19:31:25.700,21.789028,39.064442,46.82,-756,640,15602,2,9,2,-79.39,1.43,0.2,16398.118184718634,0.002575
844,1900-01-01 19:31:25.900,21.789042,39.064461,46.54,-350,-112,16812,26,-8,1,-79.4,1.31,0.27,16398.118184718634,0.002504
845,1900-01-01 19:31:26.100,21.789057,39.06448,46.45,-1066,112,16394,13,13,2,-79.42,1.4,0.46,16398.118184718634,0.002575
846,1900-01-01 19:31:26.300,21.789072,39.064503,46.11,-108,382,17434,31,34,3,-79.42,1.08,0.54,16398.118184718634,0.002902
847,1900-01-01 19:31:26.500,21.789085,39.064522,45.88,-258,-176,15072,11,-43,3,-79.45,0.84,0.69,16403.574610431715,0.002437
848,1900-01-01 19:31:26.700,21.789099,39.064541,45.7,-904,454,15724,-10,-14,-3,-79.41,1.51,0.79,16412.474645829618,0.002504
849,1900-01-01 19:31:26.900,21.789114,39.06456,45.16,-410,414,16406,-14,13,1,-79.41,1.49,0.75,15729.675139684226,0.002575
850,1900-01-01 19:31:27.100,21.789127,39.064579,45.0,24,102,17768,1,-18,-2,-79.41,1.31,0.49,15785.655006999234,0.002437
851,1900-01-01 19:31:27.300,21.789143,39.064598,44.83,-796,-466,15636,-28,6,2,-79.39,1.37,0.42,15955.329391773772,0.002648
852,1900-01-01 19:31:27.500,21.789156,39.064617,44.7,-266,-234,15780,-15,4,-2,-79.37,1.3,0.36,15953.151162074531,0.002437
853,1900-01-01 19:31:27.700,21.789169,39.064636,44.53,-642,-44,15950,-6,20,-1,-79.35,1.24,0.33,15962.975913030752,0.002437
854,1900-01-01 19:31:27.900,21.789183,39.064655,44.57,-314,312,16702,6,-31,0,-79.35,1.09,0.46,16423.42595197482,0.002504
855,1900-01-01 19:31:28.000,21.78919,39.064663,44.67,-878,118,17818,8,28,-2,-79.32,1.48,0.55,16705.368119260347,0.001135
856,1900-01-01 19:31:28.300,21.789211,39.064693,44.37,100,528,16420,-18,-4,-2,-79.31,1.03,0.5,16704.966686587555,0.003879
857,1900-01-01 19:31:28.500,21.789225,39.064713,44.23,-20,-380,17764,-5,-26,-6,-79.27,1.21,0.39,16420.47770316077,0.002586
858,1900-01-01 19:31:28.700,21.789238,39.064728,43.91,-42,638,16204,-5,-5,0,-79.22,1.45,0.36,16204.151196529858,0.002119
859,1900-01-01 19:31:28.800,21.789244,39.064739,43.89,-314,-276,16098,3,13,-3,-79.18,1.44,0.25,16204.926658272785,0.001317
860,1900-01-01 19:31:29.100,21.789265,39.064766,43.46,-164,-56,14502,-1,-2,-3,-79.15,1.35,0.17,16101.133624686183,0.003637
861,1900-01-01 19:31:29.300,21.789278,39.064785,43.45,-564,-48,16282,3,1,-4,-79.09,1.61,0.19,16107.948472726128,0.002437
862,1900-01-01 19:31:29.600,21.789297,39.064812,43.45,-606,128,14654,-1,26,1,-79.07,1.36,0.21,15801.697377180719,0.003498
863,1900-01-01 19:31:29.800,21.78931,39.064831,43.32,-724,666,16354,-32,6,-4,-79.02,1.15,0.2,16165.49745600178,0.002437
864,1900-01-01 19:31:30.000,21.789324,39.06485,42.82,-804,-530,15790,-16,-27,-6,-78.94,1.16,-0.14,16165.869478626877,0.002504
865,1900-01-01 19:31:30.300,21.789345,39.064877,41.9,-494,66,16154,15,13,-1,-78.88,1.35,-0.34,16361.592465282834,0.003637
866,1900-01-01 19:31:30.500,21.789356,39.064892,41.88,-308,254,17096,27,19,-1,-78.86,1.29,-0.13,16576.992972188895,0.001974
867,1900-01-01 19:31:30.700,21.78937,39.064911,41.76,340,-338,16786,38,-1,-1,-78.86,1.04,0.14,16790.710169614624,0.002504
868,1900-01-01 19:31:30.900,21.789381,39.06493,41.63,-100,1000,16574,15,-8,0,-78.85,1.07,0.5,16790.710169614624,0.002312
869,1900-01-01 19:31:31.100,21.789394,39.064949,41.55,-306,538,17076,0,9,0,-78.84,1.11,0.65,16576.85543159498,0.002437
870,1900-01-01 19:31:31.300,21.789408,39.064964,41.45,-340,-232,15934,-14,-6,0,-78.81,1.0,0.62,15941.96788354562,0.002196
871,1900-01-01 19:31:31.500,21.789419,39.064983,41.37,-350,-32,15640,7,4,0,-78.8,1.1,0.57,15643.948478565122,0.002312
872,1900-01-01 19:31:31.700,21.789433,39.064999,41.09,-454,372,15490,9,-6,1,-78.78,1.17,0.66,15643.948478565122,0.00227
873,1900-01-01 19:31:31.900,21.789444,39.065018,40.63,-510,-216,15160,-6,7,-1,-78.76,1.24,0.64,15544.993020262184,0.002312
874,1900-01-01 19:31:32.100,21.789457,39.065033,40.41,-200,308,16826,-15,-6,-2,-78.72,1.21,0.59,15543.720661411797,0.002119
875,1900-01-01 19:31:32.300,21.789469,39.065052,40.27,-242,548,15538,-4,6,1,-78.7,1.34,0.61,15541.39273038295,0.002373
876,1900-01-01 19:31:32.500,21.789482,39.065067,40.34,-288,-216,15904,8,14,0,-78.7,1.26,0.63,15908.073924897382,0.002119
877,1900-01-01 19:31:32.700,21.789494,39.065086,40.15,-354,-150,15014,6,11,2,-78.68,1.18,0.7,15908.576931957175,0.002373
878,1900-01-01 19:31:32.900,21.789507,39.065102,39.91,-350,216,18760,12,11,-1,-78.68,1.13,0.79,15983.98110609494,0.002195
879,1900-01-01 19:31:33.100,21.789518,39.065121,39.77,-716,152,15980,-10,4,0,-78.66,1.06,0.77,16043.033753003201,0.002312
880,1900-01-01 19:31:33.300,21.78953,39.065136,39.48,-372,-44,17042,-9,-6,-3,-78.61,1.14,0.65,17046.737283128405,0.002044
881,1900-01-01 19:31:33.500,21.789543,39.065151,39.06,-574,308,16038,-12,3,-1,-78.57,1.18,0.49,16474.90175994989,0.002119
882,1900-01-01 19:31:33.700,21.789555,39.06517,38.99,280,-252,17416,-8,-4,-2,-78.54,1.07,0.4,16654.79486514319,0.002373
883,1900-01-01 19:31:33.900,21.789566,39.065186,38.96,-252,172,16470,-4,-1,-2,-78.52,1.1,0.43,16471.993929090673,0.002056
884,1900-01-01 19:31:34.100,21.789579,39.065201,38.79,-190,178,16652,12,10,-1,-78.51,1.11,0.45,16652.95901634301,0.002119
885,1900-01-01 19:31:34.400,21.789597,39.065228,38.21,-94,-288,16198,24,-26,2,-78.52,1.06,0.58,16653.839557291285,0.003432
886,1900-01-01 19:31:34.600,21.789608,39.065243,37.84,-178,16,16934,14,-7,0,-78.53,1.07,0.78,16934.26845187001,0.001974
887,1900-01-01 19:31:34.800,21.789619,39.065258,37.88,336,442,18386,4,8,0,-78.51,0.97,0.88,16934.26845187001,0.001974
888,1900-01-01 19:31:35.000,21.789631,39.065273,37.82,426,-28,18468,-21,3,1,-78.52,0.85,0.84,17424.132345686543,0.002044
889,1900-01-01 19:31:35.200,21.789644,39.065289,37.79,-1116,634,13884,7,13,3,-78.5,0.91,0.75,17424.031795195966,0.002195
890,1900-01-01 19:31:35.500,21.789661,39.065311,37.36,-66,-66,17424,17,6,1,-78.47,1.05,0.7,17254.14895032496,0.002955
891,1900-01-01 19:31:35.700,21.789673,39.065327,37.37,18,-350,15292,-30,-15,-2,-78.47,0.97,0.72,15660.40931776689,0.002124
892,1900-01-01 19:31:35.900,21.789684,39.065346,37.33,-92,358,17254,-51,27,1,-78.44,1.1,0.6,16918.378882150617,0.002312
893,1900-01-01 19:31:36.100,21.789696,39.065361,37.23,-104,-918,15660,-21,16,0,-78.43,0.79,0.16,15664.180923367809,0.002044
894,1900-01-01 19:31:36.300,21.789707,39.065376,37.43,-594,556,16918,-7,45,0,-78.45,0.71,-0.02,15664.715637380717,0.001974
895,1900-01-01 19:31:36.600,21.789724,39.065399,37.09,78,-1412,14946,38,-46,-1,-78.43,0.58,-0.16,15675.628727422705,0.003035
896,1900-01-01 19:31:36.800,21.789736,39.065414,36.98,-816,-370,15434,20,63,-2,-78.42,1.06,0.32,16773.24178565372,0.002044
897,1900-01-01 19:31:37.000,21.789747,39.06543,36.83,-830,302,17130,4,-29,-3,-78.32,0.81,0.53,15941.747582997292,0.002056
898,1900-01-01 19:31:37.300,21.789762,39.065453,36.5,-406,560,16760,-7,0,-2,-78.26,0.96,0.58,16515.200271265257,0.002902
899,1900-01-01 19:31:37.600,21.78978,39.065475,36.15,-708,24,15926,8,-7,-3,-78.22,1.01,0.56,16768.03172706922,0.003028
900,1900-01-01 19:31:37.800,21.789791,39.065491,35.86,-168,-10,16500,15,2,1,-78.2,0.96,0.6,16505.01172371592,0.002056
901,1900-01-01 19:31:38.100,21.789808,39.065514,35.64,-422,680,17840,-3,10,-1,-78.19,0.97,0.71,16427.684194675767,0.003035
902,1900-01-01 19:31:38.300,21.789818,39.065529,35.47,-40,-94,15208,3,-1,-2,-78.16,0.83,0.65,16503.333602639195,0.001907
903,1900-01-01 19:31:38.500,21.789829,39.065544,35.43,-234,286,16426,1,1,-2,-78.13,0.89,0.64,16540.521152611847,0.001974
904,1900-01-01 19:31:38.800,21.789846,39.065567,35.51,-28,398,17676,-4,-3,0,-78.1,0.98,0.65,16538.054299100604,0.003035
905,1900-01-01 19:31:39.000,21.789858,39.065582,35.43,154,14,16538,-14,9,2,-78.08,0.96,0.68,16542.12791632322,0.002044
906,1900-01-01 19:31:39.200,21.789869,39.065598,35.32,-258,-338,17058,5,-16,-1,-78.05,0.94,0.69,16540.018258756547,0.002056
907,1900-01-01 19:31:39.500,21.789885,39.065617,34.39,-788,408,15934,-8,22,0,-78.04,1.03,0.77,16552.89835648126,0.002648
908,1900-01-01 19:31:39.700,21.789896,39.065632,34.09,-702,-414,15740,-4,5,-3,-78.02,0.91,0.73,16844.63439793218,0.001974
909,1900-01-01 19:31:39.900,21.789906,39.065647,34.16,-1084,512,16830,-7,7,0,-78.0,0.99,0.66,16849.57471273385,0.001907
910,1900-01-01 19:31:40.100,21.789917,39.065662,34.2,192,2,17270,-11,1,-4,-77.97,0.94,0.57,16843.745070500205,0.001974
911,1900-01-01 19:31:40.400,21.789932,39.065681,34.03,-448,552,17338,10,-12,1,-77.92,0.98,0.44,16843.745070500205,0.002575
912,1900-01-01 19:31:40.600,21.789944,39.065697,33.71,-182,564,16646,-14,-17,-3,-77.91,0.98,0.43,16647.652807528153,0.002124
913,1900-01-01 19:31:40.800,21.789953,39.065712,33.67,-778,-778,15514,12,4,4,-77.87,1.28,0.3,16632.69322749626,0.001844
914,1900-01-01 19:31:41.000,21.789965,39.065727,33.64,116,148,15012,-9,29,4,-77.91,0.96,0.31,16627.654795550694,0.002044
915,1900-01-01 19:31:41.300,21.78998,39.065746,33.51,-508,76,16626,-6,-27,1,-77.93,0.9,0.3,16627.077434113307,0.002575
916,1900-01-01 19:31:41.500,21.789989,39.065762,33.46,-118,444,17184,21,5,4,-77.98,0.99,0.32,16627.077434113307,0.001931
917,1900-01-01 19:31:41.700,21.790001,39.065773,33.43,-82,714,16688,-18,-3,1,-78.01,1.03,0.39,16634.528547572365,0.001752
918,1900-01-01 19:31:41.800,21.790005,39.065781,33.43,-556,-124,15482,8,5,4,-78.05,0.98,0.31,16081.34994333498,0.000938
919,1900-01-01 19:31:42.000,21.790016,39.065796,33.35,-802,160,16074,-9,-7,1,-78.08,0.97,0.32,16076.015675533537,0.001974
920,1900-01-01 19:31:42.200,21.790026,39.065811,33.28,-198,526,15834,3,6,0,-78.09,0.94,0.3,16075.76138165779,0.001907
921,1900-01-01 19:31:42.400,21.790035,39.065823,33.17,-6,132,17588,8,-2,1,-78.09,0.88,0.32,16587.953460267483,0.001593
922,1900-01-01 19:31:42.600,21.790047,39.065838,33.0,6,-86,16586,-12,6,1,-78.08,0.89,0.3,16982.51406594442,0.002044
923,1900-01-01 19:31:42.800,21.790056,39.065853,32.93,-342,472,16982,0,2,0,-78.07,0.91,0.27,16982.21881851721,0.001844
924,1900-01-01 19:31:43.000,21.790066,39.065868,32.95,66,-162,17304,-9,-8,-1,-78.07,0.87,0.29,16586.601098477047,0.001907
925,1900-01-01 19:31:43.200,21.790077,39.06588,32.8,-340,-148,15492,-9,6,0,-78.07,0.91,0.27,16983.344546937744,0.001741
926,1900-01-01 19:31:43.400,21.790087,39.065895,32.56,-112,484,15764,-1,-2,-1,-78.06,0.82,0.25,15764.458887002751,0.001907
927,1900-01-01 19:31:43.500,21.790092,39.065903,32.51,-82,182,17162,19,10,0,-78.05,0.85,0.23,15764.643478366392,0.000996
928,1900-01-01 19:31:43.700,21.790102,39.065914,32.41,128,-88,15406,-3,-10,1,-78.07,0.73,0.33,15991.427953750723,0.001589
929,1900-01-01 19:31:43.900,21.790112,39.065929,32.33,-252,-416,17062,16,2,-3,-78.06,0.82,0.35,15990.372728613927,0.001907
930,1900-01-01 19:31:44.100,21.790121,39.065941,32.29,-590,488,15990,6,9,1,-78.06,0.81,0.41,15990.288677819422,0.001593
931,1900-01-01 19:31:44.300,21.790133,39.065956,32.34,-96,52,15446,-5,8,0,-78.06,0.72,0.44,16615.99241694579,0.002044
932,1900-01-01 19:31:44.500,21.790142,39.065968,32.36,358,4,16714,10,-7,-2,-78.04,0.75,0.56,16619.90673860717,0.001593
933,1900-01-01 19:31:44.700,21.790154,39.065983,32.43,-440,898,16614,-3,-3,-4,-78.0,0.84,0.69,16627.903896763415,0.002044
934,1900-01-01 19:31:44.900,21.790163,39.065994,32.45,-520,38,16622,2,13,-2,-77.92,0.93,0.71,16630.351289133974,0.001514
935,1900-01-01 19:31:45.100,21.790173,39.06601,32.51,-516,290,16896,-12,-2,-3,-77.86,0.98,0.84,16622.355308439295,0.001991
936,1900-01-01 19:31:45.300,21.790184,39.066025,32.44,-104,374,16078,-5,-7,-3,-77.79,1.03,0.82,16572.4538919256,0.001974
937,1900-01-01 19:31:45.600,21.790199,39.066044,32.19,-252,246,16568,1,-6,-7,-77.72,1.2,0.7,16572.4538919256,0.002575
938,1900-01-01 19:31:45.800,21.790209,39.066055,31.69,138,310,16492,-6,14,-7,-77.64,1.36,0.54,16572.815934535687,0.001589
939,1900-01-01 19:31:46.100,21.790222,39.066074,30.34,-328,-368,16814,10,-3,0,-77.54,1.35,0.37,16572.815934535687,0.002437
940,1900-01-01 19:31:46.400,21.790237,39.066093,29.88,-396,494,16640,0,17,0,-77.48,1.43,0.5,16498.174080788456,0.002575
941,1900-01-01 19:31:46.600,21.790245,39.066109,29.32,90,600,15918,-1,-10,-5,-77.42,1.42,0.61,16645.38722889918,0.001876
942,1900-01-01 19:31:46.900,21.790258,39.066128,28.85,-548,-222,15426,-1,8,-1,-77.37,1.54,0.62,16644.933523447908,0.002437
943,1900-01-01 19:31:47.200,21.790272,39.066143,28.49,-746,-150,16686,27,12,6,-77.47,1.5,0.57,15927.475380611957,0.002196
944,1900-01-01 19:31:47.400,21.790281,39.066158,28.3,-94,86,16734,-2,-17,0,-77.56,1.54,0.77,16127.347953088878,0.001844
945,1900-01-01 19:31:47.700,21.790295,39.066174,28.25,-586,-38,15838,-8,-1,3,-77.61,1.74,0.75,16131.461682067127,0.00227
946,1900-01-01 19:31:47.900,21.790302,39.066189,27.96,-690,-384,16116,-3,-10,2,-77.65,1.86,0.66,16058.947661662018,0.001733
947,1900-01-01 19:31:48.200,21.790316,39.066204,27.67,-1226,-304,15712,0,-12,4,-77.71,2.01,0.66,16063.07890785574,0.002196
948,1900-01-01 19:31:48.400,21.790325,39.066216,27.46,-554,-90,16048,5,-4,6,-77.78,2.16,0.7,16071.81707212971,0.001593
949,1900-01-01 19:31:48.600,21.790333,39.066227,27.39,-1738,442,17640,-5,-8,6,-77.83,2.42,0.76,16095.014134818273,0.001443
950,1900-01-01 19:31:48.800,21.790342,39.066238,27.35,-870,290,14818,-11,-1,7,-77.85,2.69,0.68,16591.538445846425,0.001514
951,1900-01-01 19:31:49.000,21.79035,39.06625,27.37,-1278,-354,17422,-8,2,4,-77.87,2.99,0.56,17345.57580479818,0.001525
952,1900-01-01 19:31:49.200,21.790359,39.066261,27.46,-1368,-358,16542,-1,4,4,-77.91,3.19,0.52,16593.82861186652,0.001514
953,1900-01-01 19:31:49.400,21.790367,39.066273,27.51,-1140,622,17296,-16,7,4,-77.95,3.4,0.47,16602.243944720245,0.001525
954,1900-01-01 19:31:49.600,21.790377,39.066284,27.56,-1488,884,16158,-2,-3,8,-77.99,3.69,0.35,16603.14500328176,0.001589
955,1900-01-01 19:31:49.900,21.790388,39.066303,27.24,-1784,-578,16180,3,-12,7,-78.02,4.06,0.33,16259.027523194614,0.002312
956,1900-01-01 19:31:50.100,21.790396,39.066315,27.08,-1234,394,16892,2,-15,2,-78.08,4.36,0.47,16248.313758664313,0.001525
957,1900-01-01 19:31:50.300,21.790403,39.066326,26.96,-1710,-288,16186,10,-7,2,-78.14,4.56,0.48,16254.873730669211,0.001377
958,1900-01-01 19:31:50.500,21.790413,39.066338,26.78,-1396,34,15236,-6,3,7,-78.15,4.67,0.54,16248.501838631155,0.001665
959,1900-01-01 19:31:50.700,21.790419,39.066349,26.37,-1558,452,15906,-17,1,0,-78.17,4.81,0.59,15967.655933166896,0.001317
960,1900-01-01 19:31:51.000,21.79043,39.066364,25.58,-1190,280,16984,-8,-9,4,-78.2,4.75,0.49,15952.909953986451,0.001973
961,1900-01-01 19:31:51.200,21.790438,39.066376,25.23,-978,128,15066,-6,15,5,-78.22,4.4,0.44,15938.498047181234,0.001525
962,1900-01-01 19:31:51.500,21.790447,39.066395,24.75,-516,284,16406,-16,2,3,-78.25,4.1,0.49,15912.162140953693,0.002202
963,1900-01-01 19:31:51.700,21.790453,39.066406,24.34,-610,52,15898,-9,7,7,-78.27,3.77,0.38,15910.213323522725,0.001317
964,1900-01-01 19:31:51.900,21.790461,39.066414,23.97,-186,438,15876,-6,21,-1,-78.3,3.43,0.43,15908.906813480302,0.001214
965,1900-01-01 19:31:52.100,21.790466,39.066425,23.56,-858,62,16608,3,0,7,-78.3,3.13,0.32,15910.201758620158,0.001265
966,1900-01-01 19:31:52.300,21.790472,39.066437,23.01,-188,512,15566,1,-12,-7,-78.26,2.87,0.46,16015.022697455037,0.001407
967,1900-01-01 19:31:52.500,21.790478,39.066444,22.56,-546,300,16006,-9,9,-5,-78.15,2.86,0.51,16617.08831293858,0.000984
968,1900-01-01 19:31:52.700,21.790483,39.066456,21.81,-446,-36,16618,6,5,-8,-78.08,2.65,0.48,16015.022697455037,0.001358
969,1900-01-01 19:31:52.900,21.790489,39.066463,20.96,-2626,-400,19064,27,99,-1,-77.99,2.65,0.37,16624.02285850209,0.000984
970,1900-01-01 19:31:53.100,21.790493,39.066471,20.02,74,804,14568,-50,43,-7,-77.99,1.18,0.49,16652.20333769679,0.000938
971,1900-01-01 19:31:53.300,21.790499,39.066483,19.38,1294,-730,16652,-37,-4,-12,-77.82,0.68,-0.27,16652.396944584285,0.001407
972,1900-01-01 19:31:53.500,21.790503,39.06649,18.96,2054,88,17170,107,-134,-12,-77.66,0.47,-0.67,16652.396944584285,0.000849
973,1900-01-01 19:31:53.700,21.790506,39.066498,18.55,-670,2738,15080,-17,-136,-5,-77.55,1.89,0.48,17174.02294164067,0.000891
974,1900-01-01 19:31:53.900,21.790512,39.066505,18.04,-974,-1052,19382,-17,-101,-10,-77.41,2.93,-0.02,17170.46137993968,0.000984
975,1900-01-01 19:31:54.100,21.790516,39.066509,17.42,100,-358,17634,64,68,-7,-77.38,2.83,-0.42,17369.922855326677,0.000607
976,1900-01-01 19:31:54.300,21.79052,39.066517,16.61,-90,1162,15104,14,53,0,-77.25,1.68,0.41,17370.22901403433,0.000938
977,1900-01-01 19:31:54.500,21.790524,39.066525,16.21,452,-648,17366,-1,111,-11,-77.25,0.57,0.46,17080.045081907716,0.000938
978,1900-01-01 19:31:54.700,21.790529,39.066528,14.82,672,-370,17076,39,-44,-1,-77.03,-0.52,0.25,16310.284976051154,0.000636
979,1900-01-01 19:31:54.900,21.790531,39.066536,14.28,-360,838,16252,-2,-14,-7,-76.96,-0.03,0.66,16314.460456907547,0.000855
980,1900-01-01 19:31:55.100,21.790535,39.06654,13.36,856,-26,16304,-13,6,-6,-76.87,-0.32,0.46,16266.04660020375,0.000607
981,1900-01-01 19:31:55.300,21.790539,39.066547,12.71,168,-490,16072,1,-2,7,-76.87,-0.42,0.18,16259.128635938643,0.000849
982,1900-01-01 19:31:55.400,21.790541,39.066547,12.49,1158,-72,15854,-4,-10,4,-76.91,-0.65,0.2,16313.63650447073,0.000222
983,1900-01-01 19:31:55.600,21.790545,39.066555,12.35,476,-222,17682,11,20,3,-76.92,-0.7,0.08,16952.138390185468,0.000938
