Counter,Time,Latitude,Longitude,Speed(km/h),Ax,Ay,Az,Gx,Gy,Gz,Yaw,Pitch,Roll,acceleration_magnitude,distance
1,1900-01-01 11:10:02.300,21.498224,39.244835,0.0,-12,20,16746,-1,-13,1,0.0,-0.01,0.41,0.0,0.0
2,1900-01-01 11:10:02.400,21.498224,39.244835,0.0,-82,68,16818,-1,-16,-1,0.01,-0.01,0.36,0.0,0.0
3,1900-01-01 11:10:02.500,21.498224,39.244835,0.0,182,136,16022,2,3,0,0.0,-0.01,0.33,16576.14382176989,0.0
4,1900-01-01 11:10:02.600,21.498224,39.244835,0.0,-226,-30,16430,0,5,0,0.01,-0.01,0.31,16576.259771130517,0.0
5,1900-01-01 11:10:02.700,21.498224,39.244835,0.0,36,126,16576,-1,6,0,0.01,-0.02,0.3,16576.204269976886,0.0
6,1900-01-01 11:10:02.800,21.498224,39.244835,0.0,-56,74,16702,-1,7,-1,0.01,-0.02,0.27,16576.204269976886,0.0
7,1900-01-01 11:10:02.900,21.498224,39.244835,0.0,-36,4,16736,-1,-8,-1,0.01,-0.03,0.24,16576.39092203125,0.0
8,1900-01-01 11:10:03.000,21.498224,39.244835,0.0,102,148,16524,0,-25,0,0.01,-0.03,0.22,16524.173443776242,0.0
9,1900-01-01 11:10:03.100,21.498224,39.244835,0.0,110,108,16416,0,-27,0,0.01,-0.03,0.2,16416.008284598298,0.0
10,1900-01-01 11:10:03.300,21.498224,39.244835,0.0,16,-46,15764,3,21,0,0.01,-0.04,0.18,16416.288496490306,0.0
11,1900-01-01 11:10:03.400,21.498224,39.244835,0.0,-98,-30,16272,0,18,0,0.01,-0.03,0.17,16416.288496490306,0.0
12,1900-01-01 11:10:03.500,21.498224,39.244835,0.0,-8,96,16634,-3,11,1,0.01,-0.03,0.16,16272.194812009842,0.0
13,1900-01-01 11:10:03.600,21.498224,39.244835,0.0,108,158,16544,-2,-34,0,0.01,-0.03,0.14,16272.18891237439,0.0
14,1900-01-01 11:10:03.700,21.498224,39.244835,0.0,228,78,15942,2,16,0,0.01,-0.04,0.13,16332.188218361924,0.0
15,1900-01-01 11:10:03.800,21.498224,39.244835,0.0,-212,-182,16012,1,29,0,0.01,-0.04,0.12,16328.543474541751,0.0
16,1900-01-01 11:10:03.900,21.498224,39.244835,0.0,-228,-146,16332,-3,10,0,0.01,-0.04,0.1,16012.685096510204,0.0
17,1900-01-01 11:10:04.000,21.498224,39.244835,0.0,188,126,16328,1,-27,-1,0.01,-0.03,0.09,16328.568338957339,0.0
18,1900-01-01 11:10:04.100,21.498224,39.244835,0.0,148,-6,15822,1,32,-1,0.01,-0.05,0.08,16332.001591966613,0.0
19,1900-01-01 11:10:04.200,21.498224,39.244835,0.0,-136,-8,16438,-4,-3,0,0.01,-0.04,0.07,16328.747288141856,0.0
20,1900-01-01 11:10:04.300,21.498224,39.244835,0.0,4,56,16732,-1,-6,0,0.01,-0.05,0.07,16060.683048986428,0.0
21,1900-01-01 11:10:04.400,21.498224,39.244835,0.0,254,50,16060,2,7,0,0.01,-0.06,0.06,16060.01992526784,0.0
22,1900-01-01 11:10:04.500,21.498224,39.244835,0.0,256,-12,15978,1,17,0,0.01,-0.06,0.05,16060.02241592458,0.0
23,1900-01-01 11:10:04.600,21.498224,39.244835,0.0,24,-218,15838,-1,19,0,0.01,-0.05,0.04,16060.20734610858,0.0
24,1900-01-01 11:10:04.700,21.498224,39.244835,0.0,-100,-222,16092,-1,20,0,0.01,-0.05,0.03,16085.048088209123,0.0
25,1900-01-01 11:10:04.900,21.498224,39.244835,0.0,-154,-78,16084,0,21,0,0.01,-0.06,0.02,16093.047567194972,0.0
26,1900-01-01 11:10:05.000,21.498224,39.244835,0.0,-206,-154,16130,-1,10,0,0.01,-0.06,0.02,16131.470236776311,0.0
27,1900-01-01 11:10:05.100,21.498224,39.244835,0.0,-14,-114,16576,-3,6,-1,0.01,-0.06,0.02,16457.115421604114,0.0
28,1900-01-01 11:10:05.200,21.498224,39.244835,0.0,-168,-158,16456,-2,3,1,0.02,-0.06,0.01,16474.4003836255,0.0
29,1900-01-01 11:10:05.300,21.498224,39.244835,0.0,-14,96,16684,0,-20,-1,0.02,-0.06,0.01,16474.4003836255,0.0
30,1900-01-01 11:10:05.400,21.498224,39.244835,0.0,62,64,16474,1,-30,2,0.02,-0.06,-0.0,16474.13026535847,0.0
31,1900-01-01 11:10:05.500,21.498224,39.244835,0.0,-216,-186,16316,-1,12,0,0.02,-0.06,0.01,16474.124438039187,0.0
32,1900-01-01 11:10:05.600,21.498224,39.244835,0.0,8,70,16846,-1,-12,-1,0.02,-0.05,-0.0,16408.111652472384,0.0
33,1900-01-01 11:10:05.700,21.498224,39.244835,0.0,2,16,16408,-1,-26,-1,0.02,-0.06,-0.01,16316.112282035816,0.0
34,1900-01-01 11:10:05.800,21.498224,39.244835,0.0,226,60,16198,4,-2,0,0.02,-0.07,-0.01,16289.49010865595,0.0
35,1900-01-01 11:10:05.900,21.498224,39.244835,0.0,236,108,16050,2,12,0,0.02,-0.06,-0.01,16289.42393088227,0.0
36,1900-01-01 11:10:06.000,21.498224,39.244835,0.0,212,38,16288,0,-5,0,0.02,-0.06,-0.01,16289.42393088227,0.0
37,1900-01-01 11:10:06.200,21.498224,39.244835,0.0,40,-16,16652,-1,1,0,0.02,-0.06,-0.02,16652.09140018154,0.0
38,1900-01-01 11:10:06.300,21.498224,39.244835,0.0,20,30,16708,1,-23,0,0.03,-0.06,-0.02,16652.03903430448,0.0
39,1900-01-01 11:10:06.400,21.498224,39.244835,0.0,-52,168,16748,1,-5,0,0.03,-0.07,-0.02,16652.019697322005,0.0
40,1900-01-01 11:10:06.500,21.498224,39.244835,0.0,-12,-96,16444,-2,14,-2,0.03,-0.06,-0.01,16444.093042791992,0.0
41,1900-01-01 11:10:06.700,21.498224,39.244835,0.0,44,-54,15762,0,35,0,0.03,-0.07,-0.01,16444.119800098757,0.0
42,1900-01-01 11:10:06.800,21.498224,39.244835,0.0,-204,-218,16228,-2,13,0,0.03,-0.07,-0.01,16388.093360729916,0.0
43,1900-01-01 11:10:06.900,21.498224,39.244835,0.0,-32,122,16806,1,-28,1,0.03,-0.07,-0.01,16228.095267159359,0.0
44,1900-01-01 11:10:07.000,21.498224,39.244835,0.0,200,62,16388,2,-24,0,0.03,-0.08,-0.01,16228.274215085226,0.0
45,1900-01-01 11:10:07.100,21.498224,39.244835,0.0,174,-34,15690,1,34,-2,0.03,-0.08,-0.01,16276.273406403569,0.0
46,1900-01-01 11:10:07.200,21.498224,39.244835,0.0,88,-74,15912,0,30,0,0.03,-0.08,-0.02,16032.980259452701,0.0
47,1900-01-01 11:10:07.300,21.498224,39.244835,0.0,-84,-164,16276,0,20,1,0.03,-0.08,-0.01,16032.27756745747,0.0
48,1900-01-01 11:10:07.500,21.498224,39.244835,0.0,316,14,16032,2,8,0,0.03,-0.08,-0.01,16276.243915596742,0.0
49,1900-01-01 11:10:07.600,21.498224,39.244835,0.0,12,86,16786,-1,-32,1,0.03,-0.08,-0.01,16284.01043969206,0.0
50,1900-01-01 11:10:07.700,21.498224,39.244835,0.0,242,180,16284,1,-6,0,0.03,-0.09,-0.02,16554.227737952624,0.0
51,1900-01-01 11:10:07.800,21.498224,39.244835,0.0,6,-24,16554,-1,-6,0,0.03,-0.08,-0.02,16554.22640898692,0.0
52,1900-01-01 11:10:07.900,21.498224,39.244835,0.0,10,134,16648,-3,7,-1,0.03,-0.08,-0.02,16448.01860407508,0.0
53,1900-01-01 11:10:08.000,21.498224,39.244835,0.0,-184,-224,16290,-2,12,0,0.03,-0.08,-0.01,16448.18774211919,0.0
54,1900-01-01 11:10:08.200,21.498224,39.244835,0.0,-170,-218,16448,0,9,1,0.03,-0.08,-0.02,16291.272019090467,0.0
55,1900-01-01 11:10:08.300,21.498224,39.244835,0.0,-20,-76,15788,0,32,-1,0.03,-0.08,-0.03,16291.272019090467,0.0
56,1900-01-01 11:10:08.400,21.498224,39.244835,0.0,-236,-112,16188,-1,22,0,0.04,-0.08,-0.03,16448.18774211919,0.0
57,1900-01-01 11:10:08.500,21.498224,39.244835,0.0,90,164,16876,-1,4,0,0.04,-0.08,-0.03,16188.040153150103,0.0
58,1900-01-01 11:10:08.600,21.498224,39.244835,0.0,36,-2,16666,-2,4,0,0.04,-0.08,-0.04,16420.254322025587,0.0
59,1900-01-01 11:10:08.700,21.498224,39.244835,0.0,230,84,16116,3,12,0,0.04,-0.09,-0.04,16420.461503867667,0.0
60,1900-01-01 11:10:08.900,21.498224,39.244835,0.0,-78,120,16420,-3,-30,-1,0.03,-0.09,-0.04,16116.052618429861,0.0
61,1900-01-01 11:10:09.000,21.498224,39.244835,0.0,134,20,16022,1,33,0,0.04,-0.09,-0.04,16022.484326720372,0.0
62,1900-01-01 11:10:09.100,21.498224,39.244835,0.0,-32,-186,16006,1,22,-1,0.04,-0.09,-0.04,16022.252151305072,0.0
63,1900-01-01 11:10:09.200,21.498224,39.244835,0.0,92,86,15894,4,23,-1,0.04,-0.09,-0.04,16022.252151305072,0.0
64,1900-01-01 11:10:09.400,21.498224,39.244835,0.0,-36,84,16408,-1,-16,0,0.04,-0.09,-0.03,16402.246309576014,0.0
65,1900-01-01 11:10:09.500,21.498224,39.244835,0.0,-40,130,16402,0,-8,-1,0.04,-0.08,-0.03,16402.215582048666,0.0
66,1900-01-01 11:10:09.600,21.498224,39.244835,0.0,-4,-40,16678,-1,-24,0,0.04,-0.08,-0.02,16402.05426158565,0.0
67,1900-01-01 11:10:09.700,21.498224,39.244835,0.0,42,42,16372,-1,20,0,0.04,-0.08,-0.03,16402.04926221111,0.0
68,1900-01-01 11:10:09.900,21.498224,39.244835,0.0,52,-92,16064,-1,1,0,0.04,-0.09,-0.03,16372.102736056844,0.0
69,1900-01-01 11:10:10.000,21.498224,39.244835,0.0,-72,-166,16476,-2,-25,1,0.04,-0.08,-0.03,16372.061690575198,0.0
70,1900-01-01 11:10:10.100,21.498224,39.244835,0.0,58,68,16060,-1,2,0,0.04,-0.08,-0.04,16188.30145506316,0.0
71,1900-01-01 11:10:10.200,21.498224,39.244835,0.0,36,16,16650,-2,-8,0,0.04,-0.08,-0.03,16188.04793667229,0.0
72,1900-01-01 11:10:10.400,21.498224,39.244835,0.0,-162,-106,16188,-1,15,0,0.04,-0.08,-0.03,16172.153474413975,0.0
73,1900-01-01 11:10:10.500,21.498224,39.244835,0.0,96,40,16066,1,13,-2,0.04,-0.08,-0.03,16188.04793667229,0.0
74,1900-01-01 11:10:10.600,21.498224,39.244835,0.0,164,84,16172,1,27,0,0.05,-0.08,-0.04,16188.052507945482,0.0
75,1900-01-01 11:10:10.700,21.498224,39.244835,0.0,-10,-36,16686,-2,-4,1,0.05,-0.07,-0.04,16220.501595203523,0.0
76,1900-01-01 11:10:10.800,21.498224,39.244835,0.0,-50,112,16534,-1,-6,-1,0.05,-0.08,-0.03,16220.72254864129,0.0
77,1900-01-01 11:10:10.900,21.498224,39.244835,0.0,222,126,16220,1,27,-1,0.05,-0.09,-0.04,16220.507020435582,0.0
78,1900-01-01 11:10:11.000,21.498224,39.244835,0.0,128,-70,16024,0,17,0,0.05,-0.08,-0.04,16220.891714082798,0.0
79,1900-01-01 11:10:11.100,21.498224,39.244835,0.0,144,-8,15938,1,11,0,0.05,-0.09,-0.04,16220.994420811567,0.0
80,1900-01-01 11:10:11.300,21.498224,39.244835,0.0,82,170,16262,1,-12,-1,0.05,-0.09,-0.04,16262.606310182879,0.0
81,1900-01-01 11:10:11.400,21.498224,39.244835,0.0,26,152,16428,1,-19,0,0.05,-0.1,-0.04,16428.5903229705,0.0
82,1900-01-01 11:10:11.500,21.498224,39.244835,0.0,-14,114,16480,1,-27,0,0.06,-0.1,-0.04,16428.416113551542,0.0
83,1900-01-01 11:10:11.600,21.498224,39.244835,0.0,80,60,16544,-1,-23,0,0.06,-0.09,-0.04,16480.129732499074,0.0
84,1900-01-01 11:10:11.700,21.498224,39.244835,0.0,-42,-46,16370,-2,12,-1,0.06,-0.1,-0.03,16480.16504771721,0.0
85,1900-01-01 11:10:11.800,21.498224,39.244835,0.0,56,-24,16628,-2,-10,1,0.06,-0.08,-0.03,16544.09489818044,0.0
86,1900-01-01 11:10:11.900,21.498224,39.244835,0.0,86,48,16388,0,-10,1,0.06,-0.1,-0.03,16522.018036547473,0.0
87,1900-01-01 11:10:12.000,21.498224,39.244835,0.0,-72,-2,16722,-1,-12,-1,0.06,-0.09,-0.03,16522.01476818127,0.0
88,1900-01-01 11:10:12.200,21.498224,39.244835,0.0,14,-20,16522,-2,3,-1,0.06,-0.09,-0.03,16522.00895775087,0.0
89,1900-01-01 11:10:12.300,21.498224,39.244835,0.0,22,10,16488,-2,-4,0,0.06,-0.09,-0.03,16522.00895775087,0.0
90,1900-01-01 11:10:12.400,21.498224,39.244835,0.0,-38,22,16694,-2,-9,0,0.06,-0.08,-0.03,16488.00897622269,0.0
91,1900-01-01 11:10:12.500,21.498224,39.244835,0.0,148,10,16300,2,3,-1,0.06,-0.08,-0.03,16488.04682186462,0.0
92,1900-01-01 11:10:12.600,21.498224,39.244835,0.0,-50,-136,16224,-1,-4,1,0.06,-0.08,-0.02,16300.186133906569,0.0
93,1900-01-01 11:10:12.700,21.498224,39.244835,0.0,-314,-744,17610,4,-16,1,0.06,-0.14,-0.03,16224.311264272515,0.0
94,1900-01-01 11:10:12.800,21.498224,39.244835,0.0,152,-68,16086,-2,20,-1,0.07,-0.17,-0.02,16224.294129483724,0.0
95,1900-01-01 11:10:12.900,21.498224,39.244835,0.0,74,42,16204,1,15,0,0.07,-0.18,-0.02,16346.291934258363,0.0
96,1900-01-01 11:10:13.100,21.498224,39.244835,0.0,38,-90,16482,-1,7,0,0.07,-0.17,-0.02,16346.185610104885,0.0
97,1900-01-01 11:10:13.200,21.498224,39.244835,0.0,-104,-168,16346,0,6,0,0.07,-0.17,-0.03,16370.038729337204,0.0
98,1900-01-01 11:10:13.300,21.498224,39.244835,0.0,-44,-22,16550,-2,-6,1,0.07,-0.18,-0.01,16370.038729337204,0.0
99,1900-01-01 11:10:13.400,21.498224,39.244835,0.0,28,86,16370,0,0,-1,0.07,-0.17,-0.02,16370.038729337204,0.0
100,1900-01-01 11:10:13.500,21.498224,39.244835,0.0,148,22,16280,1,8,-1,0.07,-0.19,-0.03,16550.363138009994,0.0
101,1900-01-01 11:10:13.600,21.498224,39.244835,0.0,68,120,16676,2,-1,-1,0.07,-0.17,-0.02,16588.38352582915,0.0
102,1900-01-01 11:10:13.700,21.498224,39.244835,0.0,146,134,16588,-1,9,-1,0.08,-0.18,-0.02,16588.38352582915,0.0
103,1900-01-01 11:10:13.900,21.498224,39.244835,0.0,46,90,16680,-3,-17,0,0.08,-0.2,-0.03,16588.307930587736,0.0
104,1900-01-01 11:10:14.000,21.498224,39.244835,0.0,-130,82,16572,2,-17,-1,0.08,-0.18,-0.03,16572.2667127946,0.0
105,1900-01-01 11:10:14.100,21.498224,39.244835,0.0,-32,-24,15850,0,3,1,0.08,-0.19,-0.03,16572.07446278226,0.0
106,1900-01-01 11:10:14.200,21.498224,39.244835,0.0,88,-96,16218,-1,14,-1,0.08,-0.2,-0.02,16470.048573091703,0.0
107,1900-01-01 11:10:14.300,21.498224,39.244835,0.0,-76,38,16616,-1,-13,1,0.08,-0.16,-0.02,16470.034972640464,0.0
108,1900-01-01 11:10:14.400,21.498224,39.244835,0.0,260,-64,16470,0,10,1,0.08,-0.19,-0.03,16470.032179689268,0.0
109,1900-01-01 11:10:14.500,21.498224,39.244835,0.0,24,44,16588,0,-8,-1,0.08,-0.17,-0.02,16470.02052214872,0.0
110,1900-01-01 11:10:14.600,21.498224,39.244835,0.0,2,-22,15972,1,-6,0,0.08,-0.19,-0.02,16426.398631471235,0.0
111,1900-01-01 11:10:14.700,21.498224,39.244835,0.0,186,10,16182,-1,22,0,0.08,-0.17,-0.03,16426.020577120922,0.0
112,1900-01-01 11:10:14.900,21.498224,39.244835,0.0,114,-10,16426,-1,14,-1,0.08,-0.19,-0.03,16426.003165712587,0.0
113,1900-01-01 11:10:15.000,21.498224,39.244835,0.0,-178,204,16622,-1,8,0,0.08,-0.15,-0.01,16426.967462072847,0.0
114,1900-01-01 11:10:15.100,21.498224,39.244835,0.0,-746,64,16460,-2,3,-2,0.08,-0.03,-0.01,16432.840655224525,0.0
115,1900-01-01 11:10:15.200,21.498224,39.244835,0.0,-474,-88,16310,0,-11,0,0.1,0.08,-0.02,16467.83871672297,0.0
116,1900-01-01 11:10:15.300,21.498224,39.244835,0.0,-504,-118,16318,-1,8,0,0.1,0.16,-0.01,16467.741678809514,0.0
117,1900-01-01 11:10:15.400,21.498224,39.244835,0.0,-522,206,16532,-1,-4,-3,0.11,0.28,0.0,16325.00830015103,0.0
118,1900-01-01 11:10:15.500,21.498224,39.244835,0.0,-464,30,16664,0,-4,-2,0.13,0.38,0.0,16324.721008335793,0.0
119,1900-01-01 11:10:15.700,21.498224,39.244835,0.0,-438,-64,16218,-1,-13,-3,0.15,0.48,-0.02,16428.63609676713,0.0
120,1900-01-01 11:10:15.800,21.498224,39.244835,0.0,-446,-68,16006,2,26,-5,0.17,0.56,-0.01,16428.137569426424,0.0
121,1900-01-01 11:10:15.900,21.498224,39.244835,0.0,-494,-52,16422,-3,15,-5,0.2,0.63,0.0,16428.083393993347,0.0
122,1900-01-01 11:10:16.000,21.498224,39.244835,0.0,-374,-42,16574,-2,12,-5,0.23,0.7,-0.01,16428.137569426424,0.0
123,1900-01-01 11:10:16.100,21.498224,39.244835,0.0,-444,30,16582,1,-23,-4,0.27,0.76,-0.03,16579.999276236413,0.0
124,1900-01-01 11:10:16.200,21.498224,39.244835,0.0,-476,-96,15794,1,19,-5,0.31,0.83,-0.03,16579.999276236413,0.0
125,1900-01-01 11:10:16.300,21.498224,39.244835,0.0,-428,140,16668,-2,-10,-6,0.34,0.88,-0.01,16587.966843468188,0.0
126,1900-01-01 11:10:16.400,21.498224,39.244835,0.0,-494,-158,16046,-1,22,-9,0.38,0.9,-0.02,16223.127195457724,0.0
127,1900-01-01 11:10:16.500,21.498224,39.244835,0.0,-278,28,16638,-2,0,-6,0.43,0.95,-0.05,16551.55835563528,0.0
128,1900-01-01 11:10:16.600,21.498224,39.244835,0.0,-524,-68,16216,2,1,-8,0.47,0.98,-0.05,16525.433731070418,0.0
129,1900-01-01 11:10:16.700,21.498224,39.244835,0.0,-188,188,16546,-2,15,-8,0.52,1.01,-0.04,16524.84795694048,0.0
130,1900-01-01 11:10:16.800,21.498224,39.244835,0.0,-502,-40,16518,-2,-16,-7,0.57,1.04,-0.04,16524.84795694048,0.0
131,1900-01-01 11:10:16.900,21.498224,39.244835,0.0,-474,-144,16208,0,15,-9,0.62,1.07,-0.07,16547.949963666193,0.0
132,1900-01-01 11:10:17.100,21.498224,39.244835,0.0,-226,148,16618,-4,8,-10,0.68,1.08,-0.06,16623.507451798494,0.0
133,1900-01-01 11:10:17.200,21.498224,39.244835,0.0,-226,116,16952,-9,-13,-9,0.75,1.08,-0.07,16623.512384571437,0.0
134,1900-01-01 11:10:17.300,21.498224,39.244835,0.0,-426,-42,16900,-3,-13,-10,0.81,1.08,-0.12,16620.907075126797,0.0
135,1900-01-01 11:10:17.400,21.498224,39.244835,0.0,-538,-158,16160,1,-15,-10,0.88,1.11,-0.15,16617.28172716585,0.0
136,1900-01-01 11:10:17.500,21.498224,39.244835,0.0,-308,-166,16612,1,8,-9,0.97,1.17,-0.15,16165.50958058545,0.0
137,1900-01-01 11:10:17.600,21.498224,39.244835,0.0,-388,-276,15826,4,25,-13,1.04,1.13,-0.13,16164.817351272484,0.0
138,1900-01-01 11:10:17.700,21.498224,39.244835,0.0,-358,-188,15918,1,17,-11,1.13,1.11,-0.1,16301.755242917861,0.0
139,1900-01-01 11:10:17.900,21.498224,39.244835,0.0,-278,-166,16298,3,4,-12,1.2,1.11,-0.12,16301.216028259978,0.0
140,1900-01-01 11:10:18.000,21.498224,39.244835,0.0,-124,48,16900,5,36,-13,1.29,1.11,-0.11,16301.216028259978,0.0
141,1900-01-01 11:10:18.100,21.498224,39.244835,0.0,-204,424,16560,-3,21,-12,1.39,1.06,-0.04,16563.16515645485,0.0
142,1900-01-01 11:10:18.200,21.498224,39.244835,0.0,-568,-258,15602,-5,16,-16,1.48,1.01,-0.02,16561.326033865767,0.0
143,1900-01-01 11:10:18.300,21.498224,39.244835,0.0,-352,-284,16768,-2,11,-14,1.57,1.05,-0.1,16161.224706067298,0.0
144,1900-01-01 11:10:18.400,21.498224,39.244835,0.0,-86,120,16118,8,34,-13,1.65,0.99,-0.13,16123.237019903912,0.0
145,1900-01-01 11:10:18.600,21.498224,39.244835,0.0,-588,-212,16156,3,-5,-13,1.76,0.99,-0.08,16122.374763042819,0.0
146,1900-01-01 11:10:18.700,21.498224,39.244835,0.0,-152,-116,16036,1,-2,-16,1.87,1.01,-0.07,16119.134095850186,0.0
147,1900-01-01 11:10:18.800,21.498224,39.244835,0.0,-310,-288,15698,7,7,-14,1.98,0.97,-0.07,16157.131428567387,0.0
148,1900-01-01 11:10:18.900,21.498224,39.244835,0.0,248,48,16500,5,9,-13,2.06,0.93,-0.04,16473.93674869489,0.0
149,1900-01-01 11:10:19.100,21.498224,39.244835,0.0,868,188,17136,5,-43,-15,2.18,0.6,0.03,16494.923825225746,0.0
150,1900-01-01 11:10:19.200,21.498224,39.244839,4.07,1234,88,16472,4,3,-14,2.33,0.11,0.04,16502.761102312546,0.000414
151,1900-01-01 11:10:19.300,21.498224,39.244839,4.07,1342,6,16218,3,-1,-11,2.42,-0.27,0.07,16275.374772950698,0.0
152,1900-01-01 11:10:19.500,21.498226,39.244843,3.82,1006,48,16236,11,-10,-13,2.55,-0.65,0.1,16257.251059142809,0.00047
153,1900-01-01 11:10:19.600,21.498226,39.244843,3.82,1128,272,16004,1,-14,-11,2.62,-0.87,0.16,16249.172163528823,0.0
154,1900-01-01 11:10:19.800,21.498226,39.244843,3.75,516,-276,15984,-1,7,-12,2.72,-1.06,0.16,16244.26840457889,0.0
155,1900-01-01 11:10:19.900,21.498226,39.244846,3.57,266,-152,16684,0,-16,-11,2.83,-1.12,0.15,16546.207903927716,0.00031
156,1900-01-01 11:10:20.000,21.498226,39.244846,3.57,-306,186,16804,4,-41,-9,2.9,-0.96,0.14,16624.208372130084,0.0
157,1900-01-01 11:10:20.200,21.498226,39.244846,3.25,-312,-48,16544,3,16,-12,3.02,-0.74,0.18,16626.88533670693,0.0
158,1900-01-01 11:10:20.300,21.498226,39.244846,3.22,-68,202,16624,1,-19,-11,3.08,-0.62,0.19,16546.82966613242,0.0
159,1900-01-01 11:10:20.400,21.498226,39.24485,3.22,-374,-160,15694,-1,27,-14,3.17,-0.48,0.2,16363.576381708248,0.000414
160,1900-01-01 11:10:20.600,21.498226,39.24485,3.38,-222,0,16362,2,-37,-10,3.3,-0.31,0.17,16363.173897505338,0.0
161,1900-01-01 11:10:20.700,21.498226,39.24485,3.38,-196,-48,15934,5,24,-13,3.37,-0.21,0.16,16225.589788972233,0.0
162,1900-01-01 11:10:20.900,21.498226,39.244854,3.33,-140,54,16772,0,15,-12,3.48,-0.07,0.21,16225.524829724307,0.000414
163,1900-01-01 11:10:21.000,21.498226,39.244854,3.37,-434,-122,16224,0,-10,-14,3.6,0.07,0.2,16227.321282331228,0.0
164,1900-01-01 11:10:21.100,21.498226,39.244854,3.37,-548,-14,15912,0,8,-16,3.7,0.16,0.22,16417.29441777786,0.0
165,1900-01-01 11:10:21.300,21.498226,39.244858,3.44,-328,24,16414,1,9,-13,3.81,0.26,0.18,16415.28324458643,0.000414
166,1900-01-01 11:10:21.400,21.498226,39.244858,3.77,-138,118,16732,7,16,-17,3.95,0.38,0.19,16417.29441777786,0.0
167,1900-01-01 11:10:21.500,21.498226,39.244858,3.77,-156,-18,16412,-2,5,-15,4.04,0.4,0.25,16735.231817934284,0.0
168,1900-01-01 11:10:21.700,21.498226,39.244862,3.81,-338,82,17014,-4,-46,-16,4.18,0.43,0.25,16732.928135864327,0.000414
169,1900-01-01 11:10:21.800,21.498226,39.244862,3.71,-382,4,16970,2,-36,-16,4.32,0.52,0.19,16561.449936524277,0.0
170,1900-01-01 11:10:21.900,21.498226,39.244862,3.71,-10,340,16558,3,7,-17,4.44,0.52,0.2,16561.652453786126,0.0
171,1900-01-01 11:10:22.100,21.498226,39.244865,3.71,-452,-216,15360,3,1,-20,4.58,0.49,0.26,16219.213297814416,0.00031
172,1900-01-01 11:10:22.200,21.498226,39.244865,3.82,346,600,16212,15,37,-38,4.85,0.54,0.41,15763.940243479738,0.0
173,1900-01-01 11:10:22.300,21.498226,39.244865,3.85,-344,474,14996,4,55,-53,5.16,0.52,0.63,15764.83542571885,0.0
174,1900-01-01 11:10:22.400,21.498226,39.244869,3.85,-160,518,15756,-2,11,-62,5.56,0.54,0.74,16220.040690454509,0.000414
175,1900-01-01 11:10:22.600,21.498226,39.244869,3.84,-232,-114,16304,-1,-1,-72,6.1,0.57,0.67,16311.995340852694,0.0
176,1900-01-01 11:10:22.700,21.498226,39.244869,4.2,-190,448,16784,11,8,-87,6.83,0.59,0.68,16762.751564107846,0.0
177,1900-01-01 11:10:22.800,21.498226,39.244873,4.2,34,804,16808,7,-18,-105,7.42,0.53,0.85,16757.40099180061,0.000414
178,1900-01-01 11:10:23.000,21.498226,39.244873,4.2,56,130,16756,-5,-12,-129,8.35,0.45,1.01,16757.460070070287,0.0
179,1900-01-01 11:10:23.100,21.498226,39.244877,4.26,834,214,15486,2,31,-146,9.36,0.26,1.0,15898.676926084132,0.000414
180,1900-01-01 11:10:23.200,21.498226,39.244877,4.37,442,-236,15892,2,-24,-164,10.78,-0.07,0.93,15911.912518613217,0.0
181,1900-01-01 11:10:23.300,21.498228,39.244877,4.37,760,-324,15822,2,20,-179,11.84,-0.32,0.89,15916.367173447588,0.000222
182,1900-01-01 11:10:23.500,21.498228,39.244881,4.44,1190,-282,16174,7,1,-175,13.25,-0.57,0.73,16083.21920512184,0.000414
183,1900-01-01 11:10:23.600,21.498228,39.244881,4.48,840,-452,16240,9,30,-177,15.07,-0.76,0.51,16199.038613448638,0.0
184,1900-01-01 11:10:23.700,21.498228,39.244881,4.48,886,-386,16058,9,19,-165,16.22,-0.92,0.38,16198.252992221105,0.0
185,1900-01-01 11:10:23.900,21.498228,39.244884,4.45,532,-242,17086,6,-64,-155,17.59,-1.11,0.19,16068.881479430982,0.00031
186,1900-01-01 11:10:24.000,21.498228,39.244884,4.41,462,-74,15946,15,-8,-156,19.01,-1.24,0.1,15956.957855430966,0.0
187,1900-01-01 11:10:24.100,21.498228,39.244888,4.41,432,-258,15860,8,30,-147,20.32,-1.21,0.06,15954.777466326505,0.000414
188,1900-01-01 11:10:24.300,21.498228,39.244888,3.95,548,-386,15764,9,2,-147,21.76,-1.26,-0.05,15868.832975364005,0.0
189,1900-01-01 11:10:24.400,21.498228,39.244888,3.75,-22,-306,16352,11,2,-151,22.66,-1.16,-0.06,15863.024301815842,0.0
190,1900-01-01 11:10:24.500,21.498228,39.244892,3.75,-242,-342,15794,5,14,-147,23.67,-0.99,-0.03,16354.883552015894,0.000414
191,1900-01-01 11:10:24.700,21.49823,39.244892,3.65,48,-52,16452,10,-32,-150,24.83,-0.84,-0.04,16352.778112602153,0.000222
192,1900-01-01 11:10:24.800,21.49823,39.244892,3.33,26,132,16522,12,-7,-158,26.35,-0.59,-0.01,16452.61170756789,0.0
193,1900-01-01 11:10:24.900,21.49823,39.244896,3.29,-132,-158,15984,11,8,-156,27.48,-0.41,-0.01,16452.33673372874,0.000414
194,1900-01-01 11:10:25.100,21.49823,39.244896,3.29,-390,102,16786,12,-39,-162,28.55,-0.3,0.03,16522.842128399097,0.0
195,1900-01-01 11:10:25.200,21.49823,39.244896,3.12,-26,152,15916,4,37,-170,30.28,-0.16,0.19,16685.713290117386,0.0
196,1900-01-01 11:10:25.300,21.49823,39.244896,3.1,-514,0,17260,5,2,-165,31.41,-0.03,0.13,16686.025050922104,0.0
197,1900-01-01 11:10:25.400,21.49823,39.2449,3.1,-352,-324,16682,7,-8,-164,32.51,0.03,0.03,16496.982027025428,0.000414
198,1900-01-01 11:10:25.600,21.49823,39.2449,3.05,-180,124,16084,8,23,-165,33.71,0.06,0.05,16497.021306890525,0.0
199,1900-01-01 11:10:25.700,21.49823,39.2449,3.03,130,-386,16496,15,22,-165,35.32,0.11,0.07,16497.227524647893,0.0
200,1900-01-01 11:10:25.800,21.49823,39.2449,2.92,80,-36,16384,11,-6,-167,36.33,0.12,0.08,16384.795146720633,0.0
201,1900-01-01 11:10:25.900,21.49823,39.244904,2.92,-576,-90,17490,14,-47,-162,37.44,0.16,0.09,16384.84104286642,0.000414
202,1900-01-01 11:10:26.100,21.49823,39.244904,2.93,-134,-354,15892,9,38,-161,38.62,0.16,0.1,15942.864359957404,0.0
203,1900-01-01 11:10:26.200,21.49823,39.244904,2.85,-234,-98,15942,5,3,-163,40.28,0.18,0.15,15944.338305492643,0.0
204,1900-01-01 11:10:26.300,21.49823,39.244904,2.83,16,-232,15772,-1,49,-161,41.27,0.18,0.13,15946.317317800998,0.0
205,1900-01-01 11:10:26.400,21.49823,39.244904,2.83,-144,-346,16750,6,-14,-154,42.32,0.19,0.02,16349.669354454847,0.0
206,1900-01-01 11:10:26.600,21.49823,39.244907,2.83,208,-540,16346,9,-43,-149,43.44,0.07,-0.02,16356.239787921917,0.00031
207,1900-01-01 11:10:26.700,21.49823,39.244907,2.89,364,-668,16558,8,-14,-135,44.58,-0.09,-0.07,16471.54783255053,0.0
208,1900-01-01 11:10:26.800,21.49823,39.244907,2.79,1322,-914,16050,7,22,-122,45.77,-0.51,-0.24,16522.52535177356,0.0
209,1900-01-01 11:10:26.900,21.49823,39.244907,2.79,1394,-616,16456,10,-15,-99,46.45,-0.85,-0.4,16530.1927393482,0.0
210,1900-01-01 11:10:27.100,21.49823,39.244907,2.65,1936,-710,16514,2,-35,-75,46.98,-1.26,-0.52,16285.07648124503,0.0
211,1900-01-01 11:10:27.200,21.49823,39.244907,0.0,2100,-754,16092,2,7,-54,47.43,-1.74,-0.68,16586.63763395101,0.0
212,1900-01-01 11:10:27.300,21.49823,39.244907,0.0,1944,-936,16152,-3,7,-29,47.7,-2.14,-0.82,16644.182407075452,0.0
213,1900-01-01 11:10:27.400,21.49823,39.244907,0.0,1872,-844,16550,0,1,-3,47.81,-2.51,-1.02,16646.785755814846,0.0
214,1900-01-01 11:10:27.500,21.49823,39.244907,0.0,-184,304,16524,15,16,4,47.78,-2.53,-1.05,16555.553750932042,0.0
215,1900-01-01 11:10:27.600,21.49823,39.244907,0.0,-688,382,16978,11,-1,-8,47.79,-2.02,-0.7,16552.83093612691,0.0
216,1900-01-01 11:10:27.700,21.49823,39.244907,0.0,358,236,16872,-4,-12,10,47.79,-1.82,-0.59,16527.820424968322,0.0
217,1900-01-01 11:10:27.800,21.49823,39.244907,0.0,-36,530,16416,-3,-16,-7,47.76,-1.73,-0.48,16417.73577567869,0.0
218,1900-01-01 11:10:27.900,21.49823,39.244907,0.0,-228,-248,15920,7,25,0,47.8,-1.53,-0.45,16417.73577567869,0.0
219,1900-01-01 11:10:28.000,21.49823,39.244907,0.0,204,100,16062,4,6,-2,47.79,-1.41,-0.35,16062.351633556027,0.0
220,1900-01-01 11:10:28.100,21.498228,39.244907,0.0,-54,266,16890,-3,-37,-6,47.82,-1.31,-0.22,16062.85366925815,0.000222
221,1900-01-01 11:10:28.200,21.498228,39.244907,0.0,394,-96,15502,-4,14,4,47.83,-1.19,-0.23,16169.127743944631,0.0
222,1900-01-01 11:10:28.400,21.498228,39.244907,0.0,132,146,16168,-1,6,3,47.79,-1.11,-0.26,16672.708358272208,0.0
223,1900-01-01 11:10:28.500,21.498228,39.244907,0.0,34,138,16672,4,-15,3,47.78,-1.03,-0.16,16261.121363546858,0.0
224,1900-01-01 11:10:28.600,21.498228,39.244907,0.0,48,482,17080,-4,-20,6,47.75,-0.96,-0.08,16449.142591636806,0.0
225,1900-01-01 11:10:28.700,21.498228,39.244907,0.0,490,-68,16260,-2,12,5,47.71,-0.92,-0.07,16543.867746086464,0.0
226,1900-01-01 11:10:28.800,21.498228,39.244907,0.0,894,142,16448,0,3,10,47.66,-1.06,-0.11,16471.18429257593,0.0
227,1900-01-01 11:10:28.900,21.498228,39.244907,0.0,862,388,16536,4,-26,12,47.58,-1.25,-0.07,16471.18429257593,0.0
228,1900-01-01 11:10:29.000,21.498228,39.244907,0.0,1100,-98,15990,-5,20,8,47.51,-1.55,0.05,16474.24814672888,0.0
229,1900-01-01 11:10:29.100,21.498228,39.244907,0.0,650,540,16894,-4,-43,7,47.47,-1.66,0.1,16554.523248949212,0.0
230,1900-01-01 11:10:29.200,21.498228,39.244907,0.0,640,348,15854,-5,11,0,47.45,-1.72,0.16,16008.235505514029,0.0
231,1900-01-01 11:10:29.300,21.498228,39.244907,0.0,680,490,17158,-6,-18,-9,47.48,-1.81,0.25,16052.349485355719,0.0
232,1900-01-01 11:10:29.500,21.498228,39.244907,0.0,1160,240,15944,1,30,-20,47.58,-1.89,0.32,15965.711258819634,0.0
233,1900-01-01 11:10:29.600,21.498228,39.244907,0.0,622,480,16032,-1,6,-27,47.71,-1.95,0.41,16055.28162319179,0.0
234,1900-01-01 11:10:29.700,21.498228,39.244907,0.0,712,718,15810,4,14,-42,47.94,-2.03,0.55,16089.939341091376,0.0
235,1900-01-01 11:10:29.800,21.498228,39.244907,0.0,1168,1122,16602,8,-19,-57,48.28,-2.12,0.71,16105.787282837186,0.0
236,1900-01-01 11:10:29.900,21.498228,39.244907,0.0,1328,1044,16508,5,-6,-71,48.71,-2.25,0.91,15940.39209053529,0.0
237,1900-01-01 11:10:30.000,21.498228,39.244907,0.0,1132,1050,15864,4,55,-91,49.2,-2.37,1.12,16586.14035874531,0.0
238,1900-01-01 11:10:30.100,21.498226,39.244907,0.0,1152,1364,15818,9,72,-118,49.76,-2.47,1.36,16201.156748825066,0.000222
239,1900-01-01 11:10:30.200,21.498226,39.244907,0.0,988,1256,17222,4,-28,-147,50.64,-2.67,1.66,16215.810679703929,0.0
240,1900-01-01 11:10:30.300,21.498226,39.244907,0.0,1300,888,16126,11,24,-171,51.6,-2.86,1.87,16235.71285777129,0.0
241,1900-01-01 11:10:30.400,21.498226,39.244907,0.0,1520,1444,16444,25,-12,-192,52.7,-3.1,2.13,16261.716145597919,0.0
242,1900-01-01 11:10:30.500,21.498226,39.244907,0.0,1710,1590,15838,20,32,-220,53.95,-3.31,2.43,16286.255677717945,0.0
243,1900-01-01 11:10:30.600,21.498226,39.244907,0.0,1880,1718,15974,16,34,-249,55.36,-3.49,2.77,16286.255677717945,0.0
244,1900-01-01 11:10:30.700,21.498226,39.244907,0.0,1712,1698,16118,7,19,-272,56.79,-3.69,2.99,16286.255677717945,0.0
245,1900-01-01 11:10:30.800,21.498226,39.244907,0.0,1348,1570,16310,21,-15,-288,58.49,-3.91,3.15,16290.76523678369,0.0
246,1900-01-01 11:10:30.900,21.498226,39.244907,0.0,1648,1530,16236,16,11,-318,60.5,-4.14,3.4,16371.812850139719,0.0
247,1900-01-01 11:10:31.000,21.498226,39.244907,0.0,848,2410,15468,30,-39,-335,62.48,-4.33,3.64,16366.197970206764,0.0
248,1900-01-01 11:10:31.100,21.498226,39.244907,0.0,1278,1616,17996,21,-71,-348,64.55,-4.41,3.87,16350.781755010981,0.0
249,1900-01-01 11:10:31.200,21.498226,39.244907,0.0,860,2148,15890,27,52,-361,66.69,-4.43,4.06,16006.389099356544,0.0
250,1900-01-01 11:10:31.300,21.498226,39.244907,0.0,972,1672,16950,15,-67,-374,69.15,-4.52,4.28,16585.148537170237,0.0
251,1900-01-01 11:10:31.400,21.498226,39.244907,0.0,954,1674,15390,10,77,-371,71.42,-4.53,4.29,16122.419297363533,0.0
252,1900-01-01 11:10:31.500,21.498226,39.244907,0.0,1164,1322,16472,-7,-60,-359,73.62,-4.64,4.21,16474.86728322872,0.0
253,1900-01-01 11:10:31.600,21.498226,39.244907,0.0,1060,1382,16006,17,38,-356,75.8,-4.69,4.05,16480.293322632337,0.0
254,1900-01-01 11:10:31.700,21.498226,39.244907,0.0,946,770,16388,13,-43,-348,77.94,-4.76,4.01,16527.095449594282,0.0
255,1900-01-01 11:10:31.800,21.498226,39.244904,0.0,1086,1694,16440,17,6,-338,80.24,-4.78,3.99,16439.472619278273,0.00031
256,1900-01-01 11:10:31.900,21.498226,39.244904,0.0,656,854,16494,16,12,-320,82.24,-4.75,3.92,16487.173802686742,0.0
257,1900-01-01 11:10:32.000,21.498226,39.244904,0.0,980,396,16072,17,-27,-295,85.08,-4.74,3.74,16490.96746707118,0.0
258,1900-01-01 11:10:32.100,21.498226,39.244904,0.0,1062,734,16874,-1,-26,-273,86.81,-4.7,3.63,16483.537241745173,0.0
259,1900-01-01 11:10:32.200,21.498226,39.244904,0.0,1540,742,16438,16,-24,-256,87.62,-4.7,3.52,16231.303213235837,0.0
260,1900-01-01 11:10:32.300,21.498226,39.244904,0.0,958,654,16188,-1,4,-236,89.29,-4.71,3.33,16234.723403864939,0.0
261,1900-01-01 11:10:32.400,21.498226,39.244904,0.0,988,70,16036,16,-3,-199,91.14,-4.64,3.0,16163.48514399045,0.0
262,1900-01-01 11:10:32.500,21.498226,39.244904,0.0,936,958,15744,40,33,-199,92.36,-4.56,2.98,16173.551990827495,0.0
263,1900-01-01 11:10:32.600,21.498226,39.244904,0.0,638,1934,16118,33,-23,-206,93.59,-4.47,3.24,16243.154742844754,0.0
264,1900-01-01 11:10:32.700,21.498226,39.244904,0.0,524,2582,16272,12,-19,-212,94.96,-4.38,3.65,16365.522173154146,0.0
265,1900-01-01 11:10:32.800,21.498226,39.244904,0.0,646,1906,16342,6,-4,-227,96.16,-4.27,3.86,16378.636206961799,0.0
266,1900-01-01 11:10:32.900,21.498226,39.244904,0.0,674,2514,16238,-6,4,-253,97.62,-4.21,4.08,16412.741513836132,0.0
267,1900-01-01 11:10:33.000,21.498226,39.244904,0.0,924,2042,16076,0,-1,-262,99.18,-4.18,4.18,16465.847563973133,0.0
268,1900-01-01 11:10:33.100,21.498226,39.244904,0.0,656,1548,16598,-7,-55,-266,100.8,-4.1,4.23,16324.80578751245,0.0
269,1900-01-01 11:10:33.300,21.49823,39.244907,7.84,246,1378,16988,2,-6,-267,102.43,-3.95,4.21,16144.52836102684,0.000542
270,1900-01-01 11:10:33.400,21.498232,39.244907,7.84,272,1034,15838,9,-2,-269,104.21,-3.94,4.26,16639.468020342476,0.000222
271,1900-01-01 11:10:33.500,21.498236,39.244907,9.63,556,736,15748,-4,2,-247,106.29,-3.95,4.17,16316.094263027533,0.000445
272,1900-01-01 11:10:33.600,21.498238,39.244907,10.2,746,498,16648,-6,10,-192,108.4,-3.88,3.67,16315.509798961233,0.000222
273,1900-01-01 11:10:33.700,21.498241,39.244907,10.2,732,330,16290,3,17,-169,109.61,-3.91,3.32,16314.67498910107,0.000334
274,1900-01-01 11:10:33.900,21.498245,39.244911,10.27,912,544,17168,4,20,-142,110.83,-4.09,3.09,16320.12218091519,0.000608
275,1900-01-01 11:10:34.000,21.498249,39.244911,10.4,1268,388,16254,5,37,-128,112.13,-4.62,2.81,16328.700989362258,0.000445
276,1900-01-01 11:10:34.100,21.498251,39.244911,10.43,1378,-844,15830,41,16,-106,113.0,-4.77,2.53,16523.580846777735,0.000222
277,1900-01-01 11:10:34.300,21.498257,39.244911,10.43,1074,168,16956,16,-8,-62,113.47,-4.69,2.35,16331.53550649785,0.000667
278,1900-01-01 11:10:34.400,21.49826,39.244911,10.69,1370,-806,16474,-6,3,-24,113.8,-4.77,2.03,16285.754511228517,0.000334
279,1900-01-01 11:10:34.500,21.498262,39.244915,10.96,1632,-820,15958,-28,-39,9,113.88,-4.96,1.46,16528.635394369372,0.00047
280,1900-01-01 11:10:34.600,21.498266,39.244915,11.51,1018,-748,16208,-30,-89,47,113.61,-4.58,0.68,16379.202056266355,0.000445
281,1900-01-01 11:10:34.700,21.49827,39.244915,11.51,320,-1600,17494,-16,49,56,113.33,-4.2,0.1,16331.519463907822,0.000445
282,1900-01-01 11:10:34.900,21.498276,39.244915,11.67,1208,-1692,16314,-14,41,81,112.87,-4.15,-0.49,16340.789209827046,0.000667
283,1900-01-01 11:10:35.000,21.49828,39.244919,12.04,1654,-1828,14250,-7,44,117,112.15,-4.22,-0.99,16499.208950734577,0.000608
284,1900-01-01 11:10:35.100,21.498283,39.244919,12.88,2570,-2002,15896,-19,145,153,110.88,-4.29,-1.66,16519.392119566626,0.000334
285,1900-01-01 11:10:35.200,21.498287,39.244919,13.24,2294,-2696,16670,-27,16,189,109.85,-4.6,-2.24,16207.620059712654,0.000445
286,1900-01-01 11:10:35.400,21.498295,39.244923,13.24,1642,-2890,17520,-19,-45,209,108.59,-4.66,-3.0,16239.799259843085,0.000981
287,1900-01-01 11:10:35.500,21.498299,39.244923,13.74,996,-3636,15590,-1,-16,238,107.15,-4.46,-3.61,16744.13031482973,0.000445
288,1900-01-01 11:10:35.600,21.498302,39.244923,13.88,1294,-2998,14166,-14,72,254,105.39,-4.36,-4.15,16723.740012329778,0.000334
289,1900-01-01 11:10:35.700,21.498306,39.244923,14.29,924,-2724,16442,37,19,253,102.98,-4.46,-4.71,16693.401570680555,0.000445
290,1900-01-01 11:10:35.800,21.49831,39.244923,14.4,764,-2094,17040,-13,-58,258,101.45,-4.57,-4.8,16636.46536978333,0.000445
291,1900-01-01 11:10:36.000,21.498316,39.244926,14.4,954,-2350,16920,-26,-6,259,99.57,-4.59,-5.01,16935.3119841354,0.000736
292,1900-01-01 11:10:36.100,21.498322,39.244926,14.84,962,-2248,15778,-45,23,254,97.75,-4.8,-5.44,16933.176665941923,0.000667
293,1900-01-01 11:10:36.200,21.498325,39.244926,15.41,530,-2672,16746,-30,24,250,95.34,-5.0,-6.02,16819.030412006512,0.000334
294,1900-01-01 11:10:36.300,21.498329,39.244926,15.82,884,-3126,16578,-31,-84,249,93.71,-5.08,-6.38,16632.244947691215,0.000445
295,1900-01-01 11:10:36.500,21.498337,39.244926,15.82,1254,-2806,14886,-9,37,236,91.93,-5.05,-6.59,16645.57082229384,0.00089
296,1900-01-01 11:10:36.600,21.498343,39.244926,16.1,1436,-1586,16388,-3,-37,227,90.36,-4.97,-6.55,16240.033743807307,0.000667
297,1900-01-01 11:10:36.700,21.498346,39.244926,16.9,1170,-874,16120,-5,-15,201,88.23,-4.87,-6.32,16007.788479362163,0.000334
298,1900-01-01 11:10:36.800,21.49835,39.244926,17.05,728,-1504,15852,-10,-19,173,87.07,-4.92,-6.16,16206.369118343566,0.000445
299,1900-01-01 11:10:37.000,21.49836,39.244923,17.05,664,-1902,15886,-5,-34,150,85.96,-4.85,-5.97,15926.671215291663,0.001154
300,1900-01-01 11:10:37.100,21.498365,39.244923,17.43,226,-568,16976,20,-56,123,84.87,-4.8,-5.61,15915.997109826327,0.000556
301,1900-01-01 11:10:37.200,21.498369,39.244923,18.1,1574,-4,15350,-13,55,97,83.76,-4.76,-4.86,15931.874717056999,0.000445
302,1900-01-01 11:10:37.300,21.498375,39.244923,18.1,806,-1226,15794,-11,-15,91,83.11,-4.75,-4.63,15924.710609615486,0.000667
303,1900-01-01 11:10:37.500,21.498384,39.244919,18.51,1178,-900,17090,8,30,81,82.36,-4.6,-4.52,15924.710609615486,0.001083
304,1900-01-01 11:10:37.600,21.49839,39.244919,19.47,1352,-818,15860,5,-11,74,81.63,-4.65,-4.13,16741.541386622677,0.000667
305,1900-01-01 11:10:37.800,21.4984,39.244915,19.47,804,-596,16680,12,-37,59,81.15,-4.54,-3.8,16800.9766382791,0.001186
306,1900-01-01 11:10:37.900,21.498405,39.244915,19.94,1352,-400,16740,40,19,48,80.71,-4.44,-3.39,16795.1659711954,0.000556
307,1900-01-01 11:10:38.000,21.498413,39.244915,20.9,1300,930,17872,47,-26,25,80.32,-4.37,-2.44,16780.875900858096,0.00089
308,1900-01-01 11:10:38.100,21.498419,39.244915,21.3,540,1078,16980,-23,-34,10,80.17,-4.3,-1.74,16783.07409266848,0.000667
309,1900-01-01 11:10:38.300,21.498428,39.244911,21.3,1170,-36,15912,-37,41,-2,80.1,-4.16,-1.52,16994.04107327036,0.001083
310,1900-01-01 11:10:38.400,21.498436,39.244911,22.26,634,274,16624,8,-17,-2,80.15,-4.02,-1.48,16637.513516147777,0.00089
311,1900-01-01 11:10:38.500,21.498442,39.244907,22.26,272,218,17518,-37,29,8,80.1,-3.84,-1.23,15926.78260038731,0.000785
312,1900-01-01 11:10:38.700,21.498453,39.244907,22.62,1100,128,15300,-29,24,0,80.04,-3.69,-1.23,16636.577652870797,0.001223
313,1900-01-01 11:10:38.800,21.498461,39.244904,23.93,674,-38,15166,18,30,2,80.04,-3.45,-1.3,15306.010845416255,0.000942
314,1900-01-01 11:10:39.000,21.498472,39.244904,23.93,428,-28,18040,-11,-110,11,79.96,-3.11,-1.06,15306.010845416255,0.001223
315,1900-01-01 11:10:39.100,21.498478,39.2449,24.16,-544,-276,14954,2,35,1,79.89,-2.44,-1.0,16616.204861519975,0.000785
316,1900-01-01 11:10:39.200,21.498484,39.2449,24.19,268,738,17240,2,-38,4,79.86,-2.06,-0.8,16617.14367753977,0.000667
317,1900-01-01 11:10:39.400,21.498497,39.244896,24.19,-322,-776,16614,5,-27,8,79.81,-1.64,-0.75,16619.88435579502,0.001504
318,1900-01-01 11:10:39.500,21.498503,39.244896,24.21,-442,-14,14542,1,18,3,79.78,-1.24,-0.56,16618.347811981792,0.000667
319,1900-01-01 11:10:39.600,21.498508,39.244892,24.21,-520,202,17012,16,-38,8,79.72,-0.89,-0.43,16259.264189993346,0.000693
320,1900-01-01 11:10:39.800,21.498522,39.244892,24.51,368,580,16190,19,41,6,79.66,-0.76,-0.27,16261.57151077349,0.001557
321,1900-01-01 11:10:40.000,21.498533,39.244888,24.51,-910,356,16252,0,-5,7,79.61,-0.69,-0.08,16264.21347621827,0.001291
322,1900-01-01 11:10:40.100,21.498541,39.244884,24.4,-744,-82,16978,-29,-2,0,79.58,-0.73,-0.08,16256.450904179546,0.000981
323,1900-01-01 11:10:40.200,21.498547,39.244884,24.4,-134,472,16054,-35,41,-3,79.57,-0.55,-0.06,16632.35028491163,0.000667
324,1900-01-01 11:10:40.400,21.498558,39.244881,24.46,242,296,16628,23,9,-1,79.56,-0.45,-0.18,16631.17422192432,0.001262
325,1900-01-01 11:10:40.500,21.498566,39.244881,24.46,-2,460,17952,-31,-22,0,79.57,-0.08,0.06,16425.157046433378,0.00089
326,1900-01-01 11:10:40.700,21.498577,39.244877,24.46,-208,-288,15200,-11,52,-7,79.58,0.13,-0.08,16425.157046433378,0.001291
327,1900-01-01 11:10:40.800,21.498583,39.244877,24.3,-4,322,16422,-2,10,-9,79.66,0.21,-0.08,15944.608744023793,0.000667
328,1900-01-01 11:10:41.000,21.498596,39.244873,24.32,-348,668,15940,-21,38,-4,79.68,0.23,-0.05,15943.171829971601,0.001504
329,1900-01-01 11:10:41.100,21.498602,39.244873,24.3,-318,-2,14764,-23,16,-9,79.76,0.34,-0.15,15943.171829971601,0.000667
330,1900-01-01 11:10:41.300,21.498615,39.244869,24.09,-812,-216,16302,3,-14,-5,79.8,0.48,-0.27,15943.798418193828,0.001504
331,1900-01-01 11:10:41.400,21.498621,39.244865,24.26,256,-304,14768,15,65,-4,79.84,0.61,-0.24,14829.41010290025,0.000785
332,1900-01-01 11:10:41.600,21.498632,39.244865,24.26,-822,462,16920,15,-91,0,79.86,0.72,-0.17,16311.195051252376,0.001223
333,1900-01-01 11:10:41.700,21.49864,39.244862,24.17,-294,626,14826,-11,52,-8,79.89,0.68,-0.07,16605.26241888396,0.000942
334,1900-01-01 11:10:41.900,21.498652,39.244862,24.17,12,1066,17080,-5,20,-18,80.0,0.74,0.07,16937.441837538514,0.001334
335,1900-01-01 11:10:42.000,21.498657,39.244858,24.01,-220,818,16592,-9,-16,-28,80.21,0.82,0.23,16609.786271954254,0.000693
336,1900-01-01 11:10:42.200,21.498671,39.244858,24.1,-358,710,18228,-2,-75,-23,80.52,0.99,0.42,16608.64124484601,0.001557
337,1900-01-01 11:10:42.300,21.498676,39.244854,24.1,-950,-318,15538,-4,54,-21,80.66,0.91,0.51,15981.514821818362,0.000693
338,1900-01-01 11:10:42.500,21.498688,39.244854,24.05,458,-174,15980,-14,92,-29,80.86,0.81,0.57,15984.010135131923,0.001334
339,1900-01-01 11:10:42.600,21.498693,39.24485,23.63,4,-4,15742,16,-39,-26,81.13,0.67,0.49,15749.500817486249,0.000693
340,1900-01-01 11:10:42.700,21.498701,39.24485,23.85,-782,868,16944,3,-65,-27,81.28,0.75,0.65,15982.668112677558,0.00089
341,1900-01-01 11:10:42.900,21.498713,39.24485,23.85,-486,858,15040,1,-4,-20,81.46,0.83,0.8,16269.553527985949,0.001334
342,1900-01-01 11:10:43.000,21.498718,39.244846,23.89,-292,-82,16266,-34,-35,-24,81.66,0.91,0.78,16298.092158286503,0.000693
343,1900-01-01 11:10:43.100,21.498726,39.244846,23.84,-340,-806,17472,28,-35,-17,81.88,1.13,0.47,16271.169718247056,0.00089
344,1900-01-01 11:10:43.200,21.498732,39.244846,23.64,996,288,16292,75,-22,-9,81.95,1.11,0.6,16293.4338922156,0.000667
345,1900-01-01 11:10:43.400,21.498743,39.244843,23.64,26,1656,14846,-69,29,-10,82.03,1.11,1.11,17141.79232169145,0.001262
346,1900-01-01 11:10:43.500,21.498749,39.244843,23.58,-200,-524,17138,-15,7,-22,82.14,1.33,0.82,16295.772703373104,0.000667
347,1900-01-01 11:10:43.600,21.498756,39.244843,23.68,-1704,-300,18968,93,-118,-20,82.37,1.52,0.65,16557.313429418435,0.000778
348,1900-01-01 11:10:43.700,21.498762,39.244843,23.68,-572,2414,15016,34,41,-12,82.46,1.49,1.23,16557.816039562706,0.000667
349,1900-01-01 11:10:43.900,21.498774,39.244839,23.69,470,518,16548,32,90,-31,82.56,1.17,1.7,16311.415634456747,0.001397
350,1900-01-01 11:10:44.000,21.498781,39.244839,23.68,-238,1506,16240,52,55,-65,82.97,0.92,2.23,16215.838430374175,0.000778
351,1900-01-01 11:10:44.100,21.498787,39.244839,23.62,-22,2354,15762,56,-25,-67,83.54,1.02,3.07,16214.106697564315,0.000667
352,1900-01-01 11:10:44.300,21.498798,39.244835,23.62,-534,766,16144,59,-41,-65,84.0,1.21,3.52,16222.683625097297,0.001291
353,1900-01-01 11:10:44.400,21.498806,39.244835,23.79,22,2558,15798,19,-29,-84,84.61,1.4,4.18,15879.879470575335,0.00089
354,1900-01-01 11:10:44.500,21.498812,39.244835,23.73,-712,1578,16714,-4,4,-91,85.46,1.72,4.68,16229.725074689342,0.000667
355,1900-01-01 11:10:44.700,21.498823,39.244831,23.81,-322,986,15010,26,35,-111,86.08,1.55,4.87,16491.156781742146,0.001291
356,1900-01-01 11:10:44.800,21.498829,39.244831,23.81,-558,3596,18148,63,-49,-122,86.87,1.55,5.57,16683.774752735066,0.000667
357,1900-01-01 11:10:44.900,21.498837,39.244831,23.66,-560,3602,16282,11,20,-149,87.85,1.47,6.53,16685.002007791307,0.00089
358,1900-01-01 11:10:45.000,21.498842,39.244831,23.59,-1330,4286,15194,-13,89,-195,89.2,1.27,7.42,16845.91000807021,0.000556
359,1900-01-01 11:10:45.100,21.498848,39.244831,23.62,-114,4586,17072,45,22,-254,91.1,0.83,8.38,15880.888891998458,0.000667
360,1900-01-01 11:10:45.300,21.498859,39.244831,23.62,-442,5166,14656,23,41,-280,92.9,0.53,9.5,16015.419944540949,0.001223
361,1900-01-01 11:10:45.400,21.498867,39.244827,23.39,-1298,7562,14796,-20,-76,-327,95.35,0.53,10.72,17883.66696178387,0.000981
362,1900-01-01 11:10:45.500,21.498873,39.244827,23.32,-2106,4894,18040,-5,-51,-369,98.89,0.93,11.75,16531.891724784553,0.000667
363,1900-01-01 11:10:45.600,21.498878,39.244827,23.31,-1394,5828,17406,50,75,-386,101.18,0.74,12.2,16759.736752109206,0.000556
364,1900-01-01 11:10:45.800,21.498892,39.244827,23.31,-1210,6446,15416,31,95,-411,104.31,-0.04,13.39,18613.516271784865,0.001557
365,1900-01-01 11:10:45.900,21.498898,39.244827,23.48,-348,7248,14852,44,-15,-430,107.35,-0.75,14.54,17889.559972229614,0.000667
366,1900-01-01 11:10:46.000,21.498903,39.244827,24.08,-2548,7892,18032,-53,-119,-490,111.79,-0.72,15.83,17801.26883118167,0.000556
367,1900-01-01 11:10:46.200,21.498917,39.244827,24.08,-2594,7706,16296,-55,8,-527,115.27,-0.68,16.2,17992.612484016878,0.001557
368,1900-01-01 11:10:46.300,21.498922,39.244827,24.21,-2584,5524,16058,101,88,-556,119.49,-1.3,16.59,17992.612484016878,0.000556
369,1900-01-01 11:10:46.400,21.49893,39.244831,24.22,-738,8632,15110,14,30,-551,124.95,-2.69,18.15,17775.492567014844,0.000981
370,1900-01-01 11:10:46.500,21.498936,39.244831,24.26,-604,7544,15734,-16,-54,-556,128.73,-3.41,18.82,17115.049167326397,0.000667
371,1900-01-01 11:10:46.700,21.498949,39.244831,24.26,-1094,6646,17222,1,-38,-571,132.58,-3.57,18.78,17431.13754176703,0.001446
372,1900-01-01 11:10:46.800,21.498955,39.244835,24.54,-1192,5276,15610,71,-33,-575,137.49,-4.17,18.81,17163.687016489203,0.000785
373,1900-01-01 11:10:46.900,21.49896,39.244835,24.04,-468,7466,16666,56,-50,-557,142.46,-4.58,19.47,17653.240155846746,0.000556
374,1900-01-01 11:10:47.100,21.498972,39.244839,24.04,-964,6790,15006,16,31,-540,146.47,-5.08,19.81,17017.30836530854,0.001397
375,1900-01-01 11:10:47.200,21.498978,39.244843,23.45,-152,5206,16326,-24,20,-499,150.47,-5.6,19.43,17136.622070874993,0.000785
376,1900-01-01 11:10:47.300,21.498983,39.244843,22.57,8,3520,16172,-20,35,-429,154.46,-6.25,18.25,16550.65098417582,0.000556
377,1900-01-01 11:10:47.500,21.498993,39.24485,22.57,760,1934,16536,-23,15,-349,156.86,-6.67,17.06,16452.450516564393,0.001327
378,1900-01-01 11:10:47.600,21.498997,39.244858,22.09,740,288,15366,-25,13,-255,159.17,-6.98,15.33,16196.09545538677,0.00094
379,1900-01-01 11:10:47.700,21.499001,39.244862,21.97,636,242,17160,-1,-65,-176,160.92,-6.94,13.6,16268.314233503113,0.000608
380,1900-01-01 11:10:47.900,21.49901,39.244869,21.97,858,482,16042,3,47,-129,161.82,-6.81,12.55,16269.792008504595,0.001235
381,1900-01-01 11:10:48.000,21.499014,39.244873,21.67,1058,268,16248,-8,-27,-89,162.63,-6.69,11.34,16460.561472805235,0.000608
382,1900-01-01 11:10:48.100,21.499016,39.244881,20.66,798,-92,16810,-10,-54,-68,163.24,-6.55,10.2,16285.024531759233,0.000857
383,1900-01-01 11:10:48.300,21.499022,39.244888,20.66,986,484,16436,8,-66,-56,163.65,-6.43,9.39,16472.197303335095,0.000985
384,1900-01-01 11:10:48.400,21.499023,39.244896,20.05,1610,638,15344,-6,68,-57,164.08,-6.25,8.64,16478.294086464168,0.000835
385,1900-01-01 11:10:48.500,21.499023,39.244907,21.0,1418,136,17006,-2,-77,-38,164.46,-6.0,7.84,16478.294086464168,0.001138
386,1900-01-01 11:10:48.700,21.499027,39.244919,21.0,1172,-606,15544,-10,41,-22,164.63,-5.82,7.05,15705.886157743536,0.001319
387,1900-01-01 11:10:48.800,21.499029,39.244926,21.61,982,-1186,16994,-3,-50,11,164.64,-5.6,6.09,16664.314087294442,0.000758
388,1900-01-01 11:10:48.900,21.499031,39.244934,22.77,1502,-1168,15630,8,47,27,164.42,-5.4,5.03,16654.92960057172,0.000857
389,1900-01-01 11:10:49.100,21.499035,39.244946,22.77,1030,-342,16612,-1,-69,33,164.17,-5.16,4.41,16719.676312656295,0.001319
390,1900-01-01 11:10:49.200,21.499039,39.244953,23.87,662,42,17472,23,133,28,163.83,-4.84,3.71,16647.414453902446,0.00085
391,1900-01-01 11:10:49.400,21.499044,39.244965,23.87,1004,782,16686,11,200,27,163.6,-4.73,3.28,16645.826023360933,0.00136
392,1900-01-01 11:10:49.500,21.499046,39.244972,24.67,2574,-1102,16178,46,36,25,163.25,-5.11,2.49,16739.611703979277,0.000758
393,1900-01-01 11:10:49.600,21.499048,39.24498,24.92,-1682,-2246,11624,-17,75,31,163.14,-5.37,2.4,16414.676481734266,0.000857
394,1900-01-01 11:10:49.800,21.499054,39.244991,24.92,760,-1220,17546,6,-242,21,162.98,-5.14,2.12,16414.676481734266,0.001319
395,1900-01-01 11:10:49.900,21.499056,39.245003,27.0,330,142,16360,-10,29,14,162.85,-4.95,1.92,16814.585335356922,0.001261
396,1900-01-01 11:10:50.100,21.499062,39.245018,27.0,1500,-338,17426,19,84,15,162.7,-4.86,1.62,16994.2036000514,0.001689
397,1900-01-01 11:10:50.200,21.499063,39.245026,28.09,1602,-170,16794,5,-6,17,162.58,-4.96,1.36,16861.712131334705,0.000835
398,1900-01-01 11:10:50.400,21.499067,39.245041,28.09,1466,178,16930,-40,16,11,162.46,-4.98,1.2,16999.680702883805,0.001614
399,1900-01-01 11:10:50.500,21.499069,39.245049,28.36,1704,-1186,15518,-19,20,8,162.36,-4.85,0.75,16858.721541089646,0.000857
400,1900-01-01 11:10:50.600,21.499071,39.245056,28.85,292,-626,18470,-7,-90,13,162.27,-4.5,0.38,16745.9805326532,0.000758
401,1900-01-01 11:10:50.800,21.499077,39.245071,28.85,-94,-154,16734,8,65,10,162.18,-4.27,0.33,16745.547348474458,0.001689
402,1900-01-01 11:10:50.900,21.499079,39.245079,29.59,266,-562,16228,1,71,-7,162.19,-4.03,0.5,16737.799377457002,0.000857
403,1900-01-01 11:10:51.100,21.499083,39.245094,29.59,-344,-344,17790,10,-46,-12,162.29,-3.51,0.53,16738.61774460484,0.001614
404,1900-01-01 11:10:51.200,21.499086,39.245106,29.88,-278,424,16462,6,-16,-7,162.39,-2.65,0.6,16788.603991994092,0.001286
405,1900-01-01 11:10:51.400,21.49909,39.245121,29.88,-472,-278,16784,12,-14,-11,162.46,-2.41,0.58,17279.09303175372,0.001614
406,1900-01-01 11:10:51.500,21.499092,39.245129,30.42,-236,356,17272,11,-43,-15,162.62,-2.14,0.76,17282.405388139698,0.000857
407,1900-01-01 11:10:51.700,21.499098,39.245144,30.42,-876,446,17378,14,-84,-13,162.73,-1.86,0.83,17386.816729925005,0.001689
408,1900-01-01 11:10:51.800,21.4991,39.245152,30.24,-424,964,17632,3,-50,-15,162.9,-1.44,0.89,17631.02504110297,0.000857
409,1900-01-01 11:10:52.000,21.499105,39.245167,30.24,-274,-42,17932,-14,-82,-15,163.03,-1.25,0.89,17631.02504110297,0.001648
410,1900-01-01 11:10:52.100,21.499107,39.245178,30.17,-678,372,17622,-12,-87,-11,163.19,-1.0,0.8,17637.147274998868,0.00116
411,1900-01-01 11:10:52.300,21.499113,39.245193,30.17,-16,-140,15868,0,36,-6,163.25,-0.84,0.64,17624.68609649545,0.001689
412,1900-01-01 11:10:52.400,21.499115,39.245201,29.68,-1288,-676,17650,-2,-7,1,163.28,-0.42,0.37,15912.984383829451,0.000857
413,1900-01-01 11:10:52.600,21.499119,39.245216,29.68,56,-166,14296,3,94,-2,163.27,-0.35,0.29,15913.234366400817,0.001614
414,1900-01-01 11:10:52.700,21.499121,39.245224,29.32,-516,114,15904,2,78,2,163.25,0.02,0.2,16074.81881701937,0.000857
415,1900-01-01 11:10:52.900,21.499126,39.245239,29.32,-620,-320,16934,5,-74,3,163.25,0.18,0.14,15916.946063865393,0.001648
416,1900-01-01 11:10:53.000,21.499128,39.245247,29.14,-630,-160,16062,-10,43,4,163.22,0.35,0.06,16075.146780045276,0.000857
417,1900-01-01 11:10:53.200,21.499132,39.245262,29.14,-908,-528,15834,8,24,6,163.17,0.44,-0.06,16080.430466874946,0.001614
418,1900-01-01 11:10:53.300,21.499134,39.24527,29.04,-700,46,17756,-7,-1,7,163.11,0.59,-0.1,16085.723110883142,0.000857
419,1900-01-01 11:10:53.500,21.499138,39.245285,29.04,-916,-412,16040,-4,116,2,163.05,0.66,-0.19,16509.113846600005,0.001614
420,1900-01-01 11:10:53.600,21.49914,39.245293,28.72,-770,-532,16486,8,-50,10,162.99,0.68,-0.33,16504.07440603683,0.000857
421,1900-01-01 11:10:53.800,21.499144,39.245308,28.72,-430,-326,16890,-13,4,5,162.93,0.65,-0.33,16494.828644153902,0.001614
422,1900-01-01 11:10:53.900,21.499146,39.245316,27.8,-148,86,15566,-10,102,3,162.87,0.61,-0.38,16892.565583711672,0.000857
423,1900-01-01 11:10:54.100,21.499149,39.245331,27.8,-168,-236,17030,-8,61,4,162.83,0.65,-0.44,16891.086051524337,0.001587
424,1900-01-01 11:10:54.200,21.499151,39.245338,27.5,-176,-72,17174,-1,32,3,162.77,0.63,-0.53,17030.9808290656,0.000758
425,1900-01-01 11:10:54.400,21.499155,39.24535,27.5,-16,-92,16456,-1,-92,7,162.74,0.52,-0.61,17175.0527218987,0.001319
426,1900-01-01 11:10:54.500,21.499157,39.245358,27.49,-298,152,17204,5,-42,4,162.71,0.57,-0.62,17206.731357233424,0.000857
427,1900-01-01 11:10:54.600,21.499159,39.245365,27.45,-852,68,17780,4,-105,10,162.66,0.56,-0.6,17206.715084524414,0.000758
428,1900-01-01 11:10:54.800,21.499163,39.24538,27.45,-544,-226,17782,2,38,-7,162.66,0.67,-0.52,17206.715084524414,0.001614
429,1900-01-01 11:10:54.900,21.499165,39.245388,27.35,480,462,16310,-4,42,-15,162.74,0.53,-0.27,17142.475083837806,0.000857
430,1900-01-01 11:10:55.100,21.499168,39.245403,27.35,108,-132,17142,-2,21,-12,162.85,0.47,-0.21,16514.172458830628,0.001587
431,1900-01-01 11:10:55.200,21.49917,39.245411,26.92,224,296,16510,6,30,-14,163.0,0.28,-0.1,16319.746199006895,0.000857
432,1900-01-01 11:10:55.400,21.499174,39.245426,26.92,536,622,15638,16,-4,-9,163.08,0.12,-0.03,16249.379065059686,0.001614
433,1900-01-01 11:10:55.500,21.499176,39.24543,26.92,780,-162,16240,7,38,-11,163.2,-0.04,0.09,16251.538757914586,0.00047
434,1900-01-01 11:10:55.700,21.49918,39.245445,27.05,556,-260,15224,4,11,-8,163.25,-0.15,0.11,15647.185178171823,0.001614
435,1900-01-01 11:10:55.800,21.499182,39.245453,27.02,394,484,18436,20,-108,3,163.31,-0.28,0.12,16249.5169158963,0.000857
436,1900-01-01 11:10:56.000,21.499186,39.245468,27.02,462,-8,14522,-5,55,-3,163.32,-0.51,0.13,17149.0174645663,0.001614
437,1900-01-01 11:10:56.100,21.499187,39.245476,26.94,638,334,17306,-23,-23,4,163.31,-0.73,0.06,17146.227223503134,0.000835
438,1900-01-01 11:10:56.200,21.499189,39.245483,26.99,598,-104,17140,-24,-118,3,163.28,-0.98,-0.15,16530.370352777943,0.000758
439,1900-01-01 11:10:56.400,21.499193,39.245495,26.99,-154,-102,16522,-26,-28,-1,163.27,-1.1,-0.31,17150.74400718523,0.001319
440,1900-01-01 11:10:56.500,21.499195,39.245502,27.13,516,-662,15226,-10,33,3,163.24,-1.24,-0.52,16533.145617213926,0.000758
441,1900-01-01 11:10:56.700,21.499199,39.245518,27.13,914,-538,17216,5,-30,3,163.2,-1.38,-0.6,15803.628191019934,0.001714
442,1900-01-01 11:10:56.800,21.499201,39.245525,27.39,1724,190,15768,1,7,8,163.12,-1.74,-0.49,15803.628191019934,0.000758
443,1900-01-01 11:10:57.000,21.499205,39.245541,27.65,936,-946,15492,16,65,5,163.06,-1.88,-0.48,16295.576823175055,0.001714
444,1900-01-01 11:10:57.100,21.499207,39.245548,27.86,698,148,16268,12,-16,7,163.0,-1.96,-0.31,16308.706018565666,0.000758
445,1900-01-01 11:10:57.300,21.49921,39.245564,27.86,1632,592,16866,1,-45,10,162.95,-2.08,-0.25,16308.652672737868,0.001689
446,1900-01-01 11:10:57.400,21.499212,39.245571,28.13,1142,-142,16604,-33,96,-1,162.92,-2.42,-0.31,16308.652672737868,0.000758
447,1900-01-01 11:10:57.600,21.499216,39.245586,28.13,1216,-526,14416,10,12,6,162.9,-2.53,-0.44,16653.764499355693,0.001614
448,1900-01-01 11:10:57.700,21.499218,39.245594,28.32,1086,-420,16166,6,12,14,162.81,-2.55,-0.42,16217.108620219573,0.000857
449,1900-01-01 11:10:57.800,21.499222,39.245602,28.94,1374,-714,17226,0,-28,5,162.73,-2.61,-0.45,16055.624310502535,0.00094
450,1900-01-01 11:10:58.000,21.499226,39.245617,28.94,1216,10,16004,-3,-24,3,162.7,-2.81,-0.44,16205.067602450785,0.001614
451,1900-01-01 11:10:58.100,21.499228,39.245625,29.59,906,164,15664,-9,-25,6,162.64,-2.88,-0.44,16049.801120263142,0.000857
452,1900-01-01 11:10:58.300,21.499231,39.24564,29.59,742,-292,17692,-7,14,0,162.62,-2.83,-0.46,16029.899812537818,0.001587
453,1900-01-01 11:10:58.400,21.499235,39.245647,29.86,1208,-94,15478,-2,46,-2,162.62,-2.98,-0.49,16810.63579999281,0.00085
454,1900-01-01 11:10:58.600,21.499239,39.245663,29.86,646,-408,17176,1,-64,1,162.62,-2.97,-0.47,16825.68702906363,0.001714
455,1900-01-01 11:10:58.700,21.499241,39.24567,30.09,1152,-272,16784,1,-19,2,162.62,-2.99,-0.43,15642.847950421305,0.000758
456,1900-01-01 11:10:58.800,21.499243,39.245678,30.19,1468,166,15598,-4,57,-5,162.62,-3.07,-0.39,16809.045660001048,0.000857
457,1900-01-01 11:10:59.000,21.499249,39.245697,30.19,876,-416,15186,15,80,-1,162.62,-3.16,-0.4,15757.860768518041,0.002076
458,1900-01-01 11:10:59.100,21.49925,39.245705,30.67,598,486,17136,15,-83,6,162.61,-3.3,-0.29,15749.257379317922,0.000835
459,1900-01-01 11:10:59.300,21.499256,39.24572,30.67,996,-406,15724,-1,-24,-2,162.61,-3.43,-0.22,15745.674326620629,0.001689
460,1900-01-01 11:10:59.400,21.499258,39.245728,31.15,718,454,17984,16,-90,-1,162.63,-3.47,-0.19,15745.674326620629,0.000857
461,1900-01-01 11:10:59.500,21.49926,39.245735,31.35,728,390,15164,10,66,-10,162.67,-3.52,-0.01,15626.404448880747,0.000758
462,1900-01-01 11:10:59.700,21.499266,39.245754,31.35,1930,380,15590,-11,85,-16,162.77,-3.65,0.06,15214.124095721054,0.002076
463,1900-01-01 11:10:59.800,21.499268,39.245762,32.26,1194,158,14974,-2,42,-12,162.9,-3.69,0.04,15210.507683834883,0.000857
464,1900-01-01 11:11:00.000,21.499273,39.245781,32.26,1174,-314,14176,1,85,-11,162.97,-3.64,-0.01,15635.240580176565,0.002043
465,1900-01-01 11:11:00.100,21.499275,39.245789,32.88,1178,-308,16172,3,77,-7,163.05,-3.6,-0.06,16215.616917034024,0.000857
466,1900-01-01 11:11:00.300,21.499281,39.245804,33.02,766,324,17430,2,-14,-4,163.08,-3.59,-0.03,16217.009095391171,0.001689
467,1900-01-01 11:11:00.400,21.499283,39.245815,33.02,1636,354,16480,-4,59,-5,163.11,-3.57,-0.02,16195.740427655663,0.00116
468,1900-01-01 11:11:00.500,21.499287,39.245823,33.13,830,282,16126,-15,10,-7,163.14,-3.59,-0.06,16149.808048394878,0.00094
469,1900-01-01 11:11:00.700,21.49929,39.245842,33.69,720,-590,15434,0,11,-6,163.19,-3.48,-0.19,16153.733190813819,0.001994
470,1900-01-01 11:11:00.800,21.499294,39.24585,33.69,938,-336,15924,1,64,-4,163.22,-3.49,-0.2,15951.700724374188,0.00094
471,1900-01-01 11:11:00.900,21.499296,39.245857,33.97,1042,124,17270,29,59,0,163.23,-3.62,-0.17,15918.170874821013,0.000758
472,1900-01-01 11:11:01.100,21.499302,39.245876,33.97,1006,56,15888,13,-8,1,163.24,-3.77,-0.05,15954.102795206003,0.002076
473,1900-01-01 11:11:01.200,21.499304,39.245888,35.37,978,238,15266,0,-21,-2,163.27,-3.7,-0.01,16986.27045587112,0.001261
474,1900-01-01 11:11:01.400,21.49931,39.245907,35.37,156,-194,17054,-18,-58,-5,163.3,-3.58,-0.01,16965.403148761307,0.002076
475,1900-01-01 11:11:01.500,21.499313,39.245914,36.0,202,-94,16958,-7,51,-5,163.33,-3.39,-0.13,16960.16261714492,0.000797
476,1900-01-01 11:11:01.700,21.499317,39.245934,36.28,498,334,18000,-20,60,-4,163.36,-3.3,-0.2,16960.16261714492,0.002116
477,1900-01-01 11:11:01.800,21.499321,39.245945,36.28,254,-406,15650,8,33,-3,163.37,-3.25,-0.35,16960.16261714492,0.001222
478,1900-01-01 11:11:01.900,21.499323,39.245953,36.5,584,442,14276,2,53,-3,163.4,-3.07,-0.37,17641.488712690887,0.000857
479,1900-01-01 11:11:02.100,21.499329,39.245972,36.81,-8,-1300,17638,10,-107,2,163.41,-2.65,-0.44,17002.745895883992,0.002076
480,1900-01-01 11:11:02.200,21.499331,39.245983,36.81,-142,-242,18060,18,-91,0,163.43,-2.37,-0.37,16997.724671261152,0.00116
481,1900-01-01 11:11:02.300,21.499332,39.245991,36.84,714,-740,16996,31,37,3,163.44,-2.24,-0.26,16997.724671261152,0.000835
482,1900-01-01 11:11:02.400,21.499336,39.246002,36.88,-316,-162,16224,-8,-24,0,163.45,-2.36,-0.12,16228.246239196644,0.001222
483,1900-01-01 11:11:02.600,21.49934,39.246021,36.88,334,-142,15976,1,-79,-2,163.46,-2.46,-0.13,16228.246239196644,0.002015
484,1900-01-01 11:11:02.700,21.499344,39.246029,37.06,1076,162,16216,1,62,-2,163.49,-2.33,-0.15,16227.35788722243,0.00094
485,1900-01-01 11:11:02.800,21.499346,39.24604,37.15,298,-410,16390,26,-33,4,163.49,-2.18,-0.17,16220.060912339386,0.00116
486,1900-01-01 11:11:03.000,21.499352,39.246059,37.37,26,174,18998,11,-110,5,163.49,-2.17,-0.07,16392.97837490186,0.002076
487,1900-01-01 11:11:03.100,21.499353,39.246071,37.37,726,-456,15684,-7,1,-2,163.49,-2.22,0.04,16390.85049654227,0.001246
488,1900-01-01 11:11:03.200,21.499357,39.246078,37.58,-74,-94,18008,18,-68,-2,163.51,-2.02,0.02,16048.296358180827,0.00085
489,1900-01-01 11:11:03.300,21.499359,39.24609,37.69,138,-48,16048,13,-22,4,163.53,-1.8,0.06,16048.697143382076,0.001261
490,1900-01-01 11:11:03.500,21.499365,39.246109,37.91,-156,-626,15636,-15,13,-3,163.53,-1.64,0.1,16968.97745888066,0.002076
491,1900-01-01 11:11:03.600,21.499367,39.24612,37.91,-274,-130,16968,-1,14,0,163.53,-1.43,0.04,16048.82998850695,0.00116
492,1900-01-01 11:11:03.700,21.499371,39.246128,37.94,-238,266,17476,-25,13,0,163.55,-1.27,0.0,15805.304552586134,0.00094
493,1900-01-01 11:11:03.800,21.499372,39.24614,37.9,740,320,15804,-4,93,-4,163.58,-1.07,-0.19,16860.181137816995,0.001246
494,1900-01-01 11:11:04.000,21.499378,39.246159,37.97,1008,-130,15158,-5,14,-2,163.59,-1.1,-0.25,16737.51630320341,0.002076
495,1900-01-01 11:11:04.100,21.49938,39.24617,37.97,-292,130,16858,1,-6,1,163.59,-0.94,-0.3,15805.605714429295,0.00116
496,1900-01-01 11:11:04.200,21.499382,39.246181,38.01,184,-318,16736,34,37,4,163.59,-0.78,-0.35,15160.599064680788,0.00116
497,1900-01-01 11:11:04.400,21.499388,39.246201,38.06,-36,-286,13534,10,114,0,163.57,-0.78,-0.16,16701.384373757763,0.002174
498,1900-01-01 11:11:04.500,21.49939,39.246208,38.06,518,-212,14758,1,11,-3,163.55,-0.75,-0.03,16702.253740139382,0.000758
499,1900-01-01 11:11:04.600,21.499393,39.24622,38.04,-70,580,16700,12,-83,3,163.56,-0.4,0.0,16701.384373757763,0.001286
500,1900-01-01 11:11:04.800,21.499399,39.246239,37.77,-388,-272,18406,-9,-143,7,163.53,-0.2,0.11,16701.46819893389,0.002076
501,1900-01-01 11:11:04.900,21.499401,39.24625,37.77,508,1058,17020,3,54,2,163.51,-0.3,0.06,16700.240597069253,0.00116
502,1900-01-01 11:11:05.100,21.499407,39.246269,37.67,-64,-330,16170,8,50,3,163.48,-0.26,-0.06,16400.220486322738,0.002076
503,1900-01-01 11:11:05.200,21.499409,39.246281,37.67,-282,56,15610,-12,2,2,163.46,-0.14,-0.08,16175.851013161564,0.001261
504,1900-01-01 11:11:05.300,21.499413,39.246288,37.64,-30,482,16400,-7,-19,3,163.44,-0.06,-0.16,15610.231644661779,0.00085
505,1900-01-01 11:11:05.500,21.499416,39.246307,37.04,272,434,15424,7,67,2,163.4,0.04,-0.28,15612.647437254196,0.001994
506,1900-01-01 11:11:05.600,21.49942,39.246319,37.04,-382,-498,15094,-40,25,3,163.39,0.09,-0.32,16387.158142887376,0.001319
507,1900-01-01 11:11:05.700,21.499422,39.24633,37.12,-416,-178,16556,-12,-119,9,163.33,0.22,-0.6,16387.41993115451,0.00116
508,1900-01-01 11:11:05.900,21.499428,39.246349,36.89,-858,-152,16382,15,58,26,163.18,0.43,-0.98,16539.91269626294,0.002076
509,1900-01-01 11:11:06.000,21.49943,39.246357,36.86,-242,-1508,16528,14,-1,31,163.02,0.33,-1.15,16562.182102609546,0.000857
510,1900-01-01 11:11:06.100,21.499432,39.246368,36.86,196,-1582,19226,18,-17,31,162.77,0.38,-1.26,18679.58307885912,0.00116
511,1900-01-01 11:11:06.200,21.499435,39.246376,36.73,-1132,476,18658,-10,-272,33,162.47,0.55,-1.23,18669.866737606888,0.000892
512,1900-01-01 11:11:06.400,21.499439,39.246395,36.73,-894,-264,18856,23,-173,34,162.29,0.51,-1.34,18684.44690109932,0.002015
513,1900-01-01 11:11:06.500,21.499443,39.246407,36.62,-252,-616,15056,14,50,31,162.04,0.68,-1.33,15683.516697475729,0.001319
514,1900-01-01 11:11:06.700,21.499447,39.246426,36.36,-930,-434,15652,-19,38,25,161.75,0.71,-1.29,15471.609483179182,0.002015
515,1900-01-01 11:11:06.800,21.499451,39.246433,36.36,-330,-960,15440,-27,-5,28,161.57,0.72,-1.41,15471.609483179182,0.00085
516,1900-01-01 11:11:06.900,21.499453,39.246445,36.4,-298,-368,15462,-3,117,19,161.37,0.8,-1.57,15469.898771485223,0.001261
517,1900-01-01 11:11:07.100,21.499458,39.246464,36.22,-742,442,16186,17,79,10,161.23,0.65,-1.39,15469.710533814135,0.002043
518,1900-01-01 11:11:07.200,21.49946,39.246471,36.22,24,360,14832,-21,26,-13,161.22,0.29,-1.06,16040.860076691648,0.000758
519,1900-01-01 11:11:07.300,21.499464,39.246483,36.06,-448,676,17028,16,-66,-29,161.45,0.48,-0.64,16198.230273705829,0.001319
520,1900-01-01 11:11:07.500,21.49947,39.246502,36.01,-202,960,16032,11,-28,-30,161.63,0.73,-0.29,16047.51706651219,0.002076
521,1900-01-01 11:11:07.600,21.499472,39.24651,36.01,-752,162,16566,10,7,-40,161.95,0.87,0.07,16585.838417155763,0.000857
522,1900-01-01 11:11:07.700,21.499474,39.246517,35.72,558,954,15970,-17,152,-51,162.38,0.81,0.55,16577.805162324716,0.000758
523,1900-01-01 11:11:07.900,21.499479,39.246536,35.72,-800,290,16706,13,132,-44,162.7,0.84,0.61,16726.537119200733,0.002043
524,1900-01-01 11:11:08.000,21.499483,39.246548,35.3,214,592,17094,-15,-52,-30,163.1,0.73,0.85,16710.994464722917,0.001319
525,1900-01-01 11:11:08.200,21.499489,39.246563,35.3,-760,348,18054,-1,-57,-31,163.28,0.68,0.84,16708.531353772538,0.001689
526,1900-01-01 11:11:08.300,21.499491,39.246574,34.74,1096,244,13244,2,70,-29,163.5,0.57,0.84,16057.90260276852,0.00116
527,1900-01-01 11:11:08.400,21.499493,39.246582,34.85,22,282,16054,-10,-12,-18,163.73,0.82,0.82,16055.869207240074,0.000857
528,1900-01-01 11:11:08.600,21.499498,39.246601,34.85,236,-248,15674,-12,41,-13,163.8,0.88,0.72,15677.738229731991,0.002043
529,1900-01-01 11:11:08.700,21.4995,39.246609,34.86,-486,-248,16944,-11,-47,-3,163.87,0.84,0.52,16057.649765765847,0.000857
530,1900-01-01 11:11:08.800,21.499504,39.24662,34.73,622,-352,13340,-8,69,-1,163.88,0.7,0.34,16302.663586052433,0.001222
531,1900-01-01 11:11:09.000,21.499508,39.246639,34.64,470,-252,16294,10,25,2,163.88,0.61,0.2,16831.32531917793,0.002015
532,1900-01-01 11:11:09.100,21.499512,39.246647,34.64,694,608,16818,-9,20,0,163.87,0.47,0.26,16525.63257488197,0.00094
533,1900-01-01 11:11:09.200,21.499514,39.246655,34.58,754,-106,18404,5,-99,2,163.87,0.29,0.16,16830.279736237302,0.000857
534,1900-01-01 11:11:09.400,21.499519,39.246674,34.51,-422,-316,16512,2,42,-4,163.9,0.15,0.09,17192.075965397547,0.002043
535,1900-01-01 11:11:09.500,21.499521,39.246685,34.46,634,508,17176,-3,-84,0,163.9,-0.01,0.13,17184.136172644816,0.00116
536,1900-01-01 11:11:09.600,21.499523,39.246693,34.46,518,388,18552,6,-26,-1,163.9,-0.05,0.03,17185.77888837163,0.000857
537,1900-01-01 11:11:09.700,21.499527,39.2467,34.15,-330,-586,14466,10,12,0,163.92,-0.19,0.01,17315.965580931374,0.00085
538,1900-01-01 11:11:09.900,21.499531,39.246719,34.14,436,382,17304,-8,-95,5,163.89,-0.28,0.1,17309.505943267126,0.002015
539,1900-01-01 11:11:10.000,21.499535,39.246727,34.14,550,22,17614,18,-109,4,163.87,-0.39,0.05,16953.62156000894,0.00094
540,1900-01-01 11:11:10.100,21.499537,39.246738,34.23,-504,-166,16948,-5,-70,-1,163.88,-0.46,0.12,17315.321423525467,0.00116
541,1900-01-01 11:11:10.300,21.49954,39.246754,34.0,496,912,16724,9,-79,-17,163.97,-0.64,0.39,17000.76915907042,0.001689
542,1900-01-01 11:11:10.400,21.499544,39.246765,34.01,708,1098,18000,15,-20,-34,164.14,-0.7,0.67,16977.815642773367,0.001222
543,1900-01-01 11:11:10.500,21.499546,39.246773,34.01,-148,894,16970,5,2,-50,164.46,-0.84,1.09,16767.343140760255,0.000857
544,1900-01-01 11:11:10.600,21.499548,39.246784,34.01,424,1116,16676,32,31,-53,164.84,-1.01,1.36,16721.70242529151,0.00116
545,1900-01-01 11:11:10.800,21.499554,39.246799,33.92,1208,1378,16154,20,103,-50,165.34,-1.13,1.72,16719.079998612364,0.001689
546,1900-01-01 11:11:10.900,21.499556,39.246811,33.89,530,1298,15220,11,4,-52,165.64,-1.19,1.93,16732.92968968674,0.001261
547,1900-01-01 11:11:11.000,21.499559,39.246819,33.89,294,1122,16676,-9,-10,-56,166.04,-1.18,2.15,16732.92968968674,0.000892
548,1900-01-01 11:11:11.100,21.499561,39.246826,33.9,466,1452,17044,45,-58,-52,166.47,-1.09,2.19,16716.540431560592,0.000758
549,1900-01-01 11:11:11.300,21.499565,39.246845,33.96,-158,824,17612,-3,-40,-46,166.95,-1.16,2.43,16698.933738415755,0.002015
550,1900-01-01 11:11:11.400,21.499569,39.246857,33.99,308,342,16282,21,69,-54,167.3,-1.31,2.47,16305.746349063571,0.001319
551,1900-01-01 11:11:11.500,21.499571,39.246864,33.99,-298,532,15166,13,12,-51,167.69,-1.38,2.62,16305.746349063571,0.000758
552,1900-01-01 11:11:11.600,21.499573,39.246872,34.09,604,844,16022,-3,0,-54,168.08,-1.52,2.83,16055.579590908575,0.000857
553,1900-01-01 11:11:11.800,21.499577,39.246891,33.95,854,1688,16888,7,55,-64,168.61,-1.62,3.07,16081.259279049014,0.002015
554,1900-01-01 11:11:11.900,21.49958,39.246899,33.95,724,1714,16004,13,20,-67,169.0,-1.72,3.23,16126.934116564127,0.000892
555,1900-01-01 11:11:12.000,21.499582,39.24691,33.91,436,1240,17762,12,-90,-69,169.56,-1.82,3.46,16111.796547871376,0.00116
556,1900-01-01 11:11:12.100,21.499584,39.246918,33.87,742,1852,15794,6,20,-78,170.11,-1.89,3.71,15912.21028015907,0.000857
557,1900-01-01 11:11:12.300,21.49959,39.246937,34.22,564,2574,15632,9,26,-105,170.93,-1.92,4.18,16012.308016023175,0.002076
558,1900-01-01 11:11:12.400,21.499592,39.246944,34.22,266,2878,15558,4,-59,-122,171.69,-1.88,4.63,16032.708317686067,0.000758
559,1900-01-01 11:11:12.500,21.499594,39.246956,34.24,636,2948,16648,10,0,-131,172.62,-1.71,5.02,16461.91009573312,0.001261
560,1900-01-01 11:11:12.700,21.499598,39.246971,33.99,328,2698,16236,12,15,-139,174.09,-1.62,5.57,16867.30162177697,0.001614
561,1900-01-01 11:11:12.800,21.499599,39.246983,33.86,-14,2360,17474,22,1,-141,174.86,-1.63,5.87,16909.47060082012,0.001246
562,1900-01-01 11:11:12.900,21.499603,39.24699,33.86,-116,2446,16704,17,23,-140,175.88,-1.68,6.27,16909.809697332494,0.00085
563,1900-01-01 11:11:13.000,21.499605,39.246998,33.82,-108,2628,16714,7,-62,-141,176.99,-1.74,6.63,16909.862684244363,0.000857
564,1900-01-01 11:11:13.200,21.499609,39.247017,33.35,-160,3032,15974,11,-14,-158,178.35,-1.71,7.12,16225.96215945298,0.002015
565,1900-01-01 11:11:13.300,21.499609,39.247025,33.35,-368,2846,15246,18,55,-167,179.72,-1.6,7.55,16245.925766172884,0.000828
566,1900-01-01 11:11:13.500,21.499613,39.247044,33.32,140,3170,15522,10,70,-165,-178.73,-1.45,7.93,15802.146942741672,0.002015
567,1900-01-01 11:11:13.600,21.499615,39.247051,33.32,54,2958,16864,-6,29,-164,-177.27,-1.42,8.21,15679.934821293104,0.000758
568,1900-01-01 11:11:13.800,21.499617,39.24707,32.99,-902,2578,15386,27,30,-159,-175.85,-1.31,8.27,15633.51284900486,0.001978
569,1900-01-01 11:11:13.900,21.499617,39.247078,32.87,-328,2068,15416,-13,28,-142,-174.58,-1.17,8.32,15561.868268302493,0.000828
570,1900-01-01 11:11:14.100,21.499617,39.247097,32.86,-720,1220,15118,-6,42,-121,-173.35,-1.02,8.03,15511.854176725617,0.001966
571,1900-01-01 11:11:14.200,21.499619,39.247108,32.86,-492,1650,16576,9,23,-108,-172.67,-0.94,7.77,15507.518821526544,0.00116
572,1900-01-01 11:11:14.300,21.499617,39.247116,32.81,-16,1518,16626,-19,-131,-93,-171.89,-0.88,7.53,15272.707553017572,0.000857
573,1900-01-01 11:11:14.400,21.499617,39.247128,33.05,-254,1726,12854,5,173,-100,-171.21,-0.71,7.26,15623.992575523069,0.001241
574,1900-01-01 11:11:14.600,21.499615,39.247143,32.89,-306,874,15194,10,-4,-94,-170.37,-0.66,6.94,15264.847722791079,0.001568
575,1900-01-01 11:11:14.700,21.499613,39.247154,32.89,-54,1468,15548,12,-153,-90,-169.76,-0.78,6.77,14786.039226243112,0.00116
576,1900-01-01 11:11:14.800,21.499611,39.247162,32.82,42,764,13578,29,306,-96,-169.05,-0.49,6.58,15216.749061478276,0.000857
577,1900-01-01 11:11:15.000,21.499609,39.247181,32.7,-952,176,14758,34,134,-90,-168.18,-0.32,6.53,14781.420094158748,0.001978
578,1900-01-01 11:11:15.100,21.499607,39.247189,32.67,324,830,18328,32,-97,-73,-167.74,-0.18,6.54,13599.54205111334,0.000857
579,1900-01-01 11:11:15.200,21.499605,39.247196,32.67,-2050,1140,11168,-50,298,-84,-167.12,-0.17,6.31,13556.967359996113,0.000758
580,1900-01-01 11:11:15.300,21.499605,39.247208,32.56,488,-1456,13552,43,98,-39,-166.52,-0.17,4.99,13556.770116808797,0.001241
581,1900-01-01 11:11:15.500,21.499601,39.247223,32.49,322,-586,12852,43,-8,1,-166.38,-0.22,4.68,13561.68072179846,0.001614
582,1900-01-01 11:11:15.600,21.499598,39.247231,32.49,1660,-156,15064,34,151,-2,-166.41,-0.05,4.27,13807.508247326887,0.000892
583,1900-01-01 11:11:15.800,21.499594,39.24725,32.68,932,518,13798,69,120,0,-166.45,0.14,4.0,14526.847283564317,0.002015
584,1900-01-01 11:11:15.900,21.499592,39.247257,32.68,486,370,14514,34,87,6,-166.49,0.23,4.02,15081.623917867732,0.000758
585,1900-01-01 11:11:16.000,21.49959,39.247265,32.59,-140,540,18376,47,79,10,-166.57,0.35,3.89,14678.71424887071,0.000857
586,1900-01-01 11:11:16.200,21.499586,39.247284,32.66,628,-332,16504,3,-70,17,-166.69,0.01,3.68,16274.880890501165,0.002015
587,1900-01-01 11:11:16.300,21.499584,39.247292,32.66,392,-72,14666,16,-46,7,-166.74,-0.21,3.44,16271.784905166365,0.000857
588,1900-01-01 11:11:16.400,21.49958,39.247303,32.65,152,-602,16270,78,-15,6,-166.79,-0.07,3.29,16272.534160357445,0.001222
589,1900-01-01 11:11:16.600,21.499577,39.247318,32.78,230,292,15938,34,29,22,-166.93,-0.19,3.53,15939.822081817601,0.001587
590,1900-01-01 11:11:16.700,21.499575,39.247326,32.78,278,136,16688,27,-115,23,-167.05,-0.31,3.6,15945.361331747863,0.000857
591,1900-01-01 11:11:16.800,21.499573,39.247337,32.92,-94,-1560,14604,-9,81,12,-167.18,-0.17,3.47,15928.241334183758,0.00116
592,1900-01-01 11:11:17.000,21.499569,39.247353,32.64,-282,-460,14720,2,40,34,-167.41,-0.24,3.09,15926.32273941477,0.001714
593,1900-01-01 11:11:17.100,21.499567,39.24736,32.64,610,982,15926,-13,2,31,-167.64,-0.23,2.78,15934.862158173819,0.000758
594,1900-01-01 11:11:17.200,21.499563,39.247372,32.58,-562,38,18796,-24,-12,40,-167.93,-0.32,2.39,18008.084962038578,0.001319
595,1900-01-01 11:11:17.400,21.499559,39.247387,32.62,-266,-668,18212,-6,-43,49,-168.32,-0.43,1.7,18008.31030385694,0.001614
596,1900-01-01 11:11:17.500,21.499557,39.247398,32.62,-1084,-478,18000,9,-169,62,-168.75,-0.22,1.26,18014.354831633576,0.00116
597,1900-01-01 11:11:17.700,21.499554,39.247414,32.62,-240,-1058,16138,21,-34,69,-169.41,0.08,0.92,16174.424502899632,0.001689
598,1900-01-01 11:11:17.800,21.499552,39.247421,32.75,-56,-1108,13448,1,236,67,-169.82,-0.01,0.72,16174.424502899632,0.000758
599,1900-01-01 11:11:17.900,21.49955,39.247433,32.75,116,-1252,16042,-12,60,85,-170.45,-0.07,0.29,16176.088649608719,0.001261
600,1900-01-01 11:11:18.100,21.499546,39.247448,32.86,-546,-858,17162,2,-36,111,-171.47,-0.07,-0.52,16090.879528478237,0.001614
601,1900-01-01 11:11:18.200,21.499544,39.247459,32.84,280,-2120,16622,-11,-93,127,-172.19,-0.06,-1.0,16695.339349650847,0.00116
602,1900-01-01 11:11:18.300,21.499542,39.247467,32.84,-702,-2826,15248,-40,15,141,-173.24,0.11,-1.68,16757.415194474357,0.000857
603,1900-01-01 11:11:18.500,21.49954,39.247482,32.83,-244,-1544,18290,-8,-56,151,-174.74,0.21,-2.59,16149.845448176895,0.001568
604,1900-01-01 11:11:18.600,21.499538,39.247494,32.76,-192,-2112,16010,-25,51,146,-175.73,0.11,-2.98,16150.547359145448,0.001261
605,1900-01-01 11:11:18.700,21.499537,39.247501,32.76,-58,-1366,15604,-5,-10,151,-176.81,-0.0,-3.47,16342.879060924364,0.000733
606,1900-01-01 11:11:18.900,21.499535,39.24752,32.73,-1184,-2406,16204,-12,37,160,-178.44,0.09,-4.17,16164.297695848094,0.001978
607,1900-01-01 11:11:19.000,21.499533,39.247528,32.73,-904,-2174,17078,-20,-56,173,-179.84,0.22,-4.73,16356.46771158125,0.000857
608,1900-01-01 11:11:19.200,21.499531,39.247543,32.63,-488,-2280,15926,-14,29,175,178.37,0.01,-5.31,17189.041159994933,0.001568
609,1900-01-01 11:11:19.300,21.499531,39.247555,32.73,628,-1816,17072,-17,93,173,176.34,-0.36,-5.75,17187.694318901533,0.001241
610,1900-01-01 11:11:19.500,21.499529,39.24757,32.73,-438,-2236,17036,-10,-19,170,174.75,-0.65,-6.13,17190.374050613325,0.001568
611,1900-01-01 11:11:19.700,21.499529,39.247589,32.51,892,-2640,16936,-26,108,170,173.17,-0.86,-6.45,17240.260438868085,0.001966
612,1900-01-01 11:11:19.800,21.499529,39.247597,32.51,-292,-2696,17624,-18,-85,174,171.71,-1.16,-6.75,17150.166063335946,0.000828
613,1900-01-01 11:11:20.000,21.499531,39.247616,32.06,-178,-2822,15334,-5,81,175,169.9,-1.57,-7.06,17170.42410658514,0.001978
614,1900-01-01 11:11:20.100,21.499533,39.247623,32.06,470,-2856,14656,-24,57,190,168.55,-1.76,-7.34,17849.390577832062,0.000758
615,1900-01-01 11:11:20.300,21.499535,39.247639,32.38,-904,-3296,19926,-28,-216,204,166.52,-1.67,-7.95,15598.501722921981,0.00167
616,1900-01-01 11:11:20.400,21.499535,39.24765,32.38,-158,-2722,17852,1,-21,211,165.05,-1.73,-8.3,16803.18886402221,0.001138
617,1900-01-01 11:11:20.500,21.499537,39.247658,32.43,158,-4174,14516,-17,101,213,162.75,-1.99,-8.66,16806.13269018188,0.000857
618,1900-01-01 11:11:20.700,21.49954,39.247673,32.43,-530,-3428,16476,-12,125,209,161.34,-1.96,-8.86,16338.446192952377,0.001587
619,1900-01-01 11:11:20.800,21.499542,39.247684,32.26,-352,-3004,15968,-1,17,210,159.59,-2.04,-9.1,16338.446192952377,0.00116
620,1900-01-01 11:11:21.000,21.499546,39.2477,32.51,716,-3438,15974,-13,132,212,157.69,-2.03,-9.26,16832.518052864223,0.001714
621,1900-01-01 11:11:21.100,21.499548,39.247707,32.51,228,-3262,16938,-25,-79,217,155.8,-2.05,-9.47,16340.566697639344,0.000758
622,1900-01-01 11:11:21.300,21.499552,39.247726,32.34,-712,-4036,18584,-14,-53,222,153.88,-2.08,-9.76,16358.819272795943,0.002015
623,1900-01-01 11:11:21.400,21.499556,39.247734,32.34,-160,-3524,14934,-19,112,228,151.88,-2.23,-10.06,17301.44560434185,0.00094
624,1900-01-01 11:11:21.600,21.499561,39.247749,32.45,154,-3670,15926,-13,-6,228,149.84,-2.19,-10.29,16804.025946183254,0.001648
625,1900-01-01 11:11:21.700,21.499565,39.247757,32.45,-402,-3226,18340,-22,-105,230,147.95,-1.96,-10.4,16312.009440899672,0.00094
626,1900-01-01 11:11:21.900,21.499571,39.247772,32.24,-444,-3540,16422,-6,-34,230,145.79,-2.12,-10.59,16307.011252832322,0.001689
627,1900-01-01 11:11:22.000,21.499575,39.24778,32.24,-98,-3044,15498,-26,70,227,144.05,-2.29,-10.65,16791.760598579294,0.00094
628,1900-01-01 11:11:22.200,21.499582,39.247795,31.03,-378,-3484,15484,-9,-3,229,141.76,-2.37,-10.84,15897.459168055755,0.001736
629,1900-01-01 11:11:22.300,21.499586,39.247799,31.03,462,-3862,16568,-9,172,224,140.24,-2.32,-10.92,15885.08306556815,0.000608
630,1900-01-01 11:11:22.400,21.499592,39.247807,30.84,558,-4104,12808,-38,72,236,138.17,-2.54,-11.13,15873.028318503057,0.001063
631,1900-01-01 11:11:22.600,21.499599,39.247822,30.72,-246,-3470,17230,-35,-6,242,136.02,-2.64,-11.34,15687.819861280917,0.001736
632,1900-01-01 11:11:22.700,21.499605,39.247826,30.72,-1956,-3254,15198,-2,-101,252,133.98,-2.95,-11.53,15656.595032126239,0.000785
633,1900-01-01 11:11:22.900,21.499617,39.247837,30.75,1094,-4282,15134,-34,149,237,131.78,-3.24,-11.53,16142.297853775342,0.001754
634,1900-01-01 11:11:23.000,21.499622,39.247845,30.42,812,-3720,15744,-10,151,226,129.78,-3.41,-11.56,16107.429838431704,0.000997
635,1900-01-01 11:11:23.200,21.499634,39.247852,30.03,1302,-2558,17614,-8,19,234,127.55,-3.57,-11.56,17138.654089513562,0.001518
636,1900-01-01 11:11:23.300,21.49964,39.24786,30.03,-12,-3304,16794,-15,-44,230,125.88,-3.68,-11.52,17939.58628285502,0.001063
637,1900-01-01 11:11:23.500,21.499651,39.247868,29.67,140,-3322,17774,-29,39,231,123.23,-3.92,-11.44,17921.746901460247,0.001477
638,1900-01-01 11:11:23.600,21.499659,39.247875,29.67,1060,-2588,19574,17,-157,240,121.71,-4.05,-11.45,17116.49648730721,0.001147
639,1900-01-01 11:11:23.800,21.499672,39.247883,29.97,-1180,-4428,16240,-16,29,227,119.21,-4.14,-11.28,16956.418253864817,0.001666
640,1900-01-01 11:11:23.900,21.499678,39.247887,29.97,1990,-1424,16594,-18,174,222,117.41,-4.26,-11.22,16937.872121373453,0.000785
641,1900-01-01 11:11:24.100,21.499691,39.247894,29.88,1220,-3806,16338,-9,150,228,115.1,-4.61,-11.32,16719.351781692974,0.001617
642,1900-01-01 11:11:24.200,21.499697,39.247898,29.88,376,-3226,17348,-27,-11,233,113.42,-4.66,-11.25,16698.07533819392,0.000785
643,1900-01-01 11:11:24.400,21.49971,39.24791,30.12,996,-3408,15346,-20,8,228,110.96,-5.12,-11.29,16699.69113486833,0.001905
644,1900-01-01 11:11:24.500,21.499718,39.24791,30.12,1712,-3144,16304,-13,48,230,109.17,-5.27,-11.31,16686.12885003589,0.00089
645,1900-01-01 11:11:24.700,21.499731,39.247917,29.9,1202,-3480,15650,-29,47,234,106.77,-5.13,-11.32,16442.892446282072,0.001617
646,1900-01-01 11:11:24.800,21.499739,39.247921,29.9,480,-4052,17100,-8,-53,236,105.07,-5.17,-11.37,16739.356379502766,0.000981
647,1900-01-01 11:11:25.000,21.499754,39.247929,29.67,1194,-3798,16026,-25,-11,238,102.35,-5.28,-11.48,16477.72872698176,0.001862
648,1900-01-01 11:11:25.100,21.499762,39.247932,29.67,508,-3600,16638,-18,15,233,100.65,-5.42,-11.62,17131.028807400915,0.000942
649,1900-01-01 11:11:25.300,21.499775,39.247936,29.75,312,-4584,14618,-64,-63,238,98.21,-5.35,-11.89,16587.73571045789,0.001504
650,1900-01-01 11:11:25.400,21.499784,39.24794,29.75,-102,-4104,17722,-28,12,235,96.23,-5.27,-12.13,16587.73571045789,0.001083
651,1900-01-01 11:11:25.600,21.499798,39.247944,29.88,862,-4816,16064,6,28,246,93.69,-5.74,-12.29,16602.347906245068,0.001611
652,1900-01-01 11:11:25.700,21.499805,39.247944,29.88,1248,-3410,14972,-33,44,242,91.76,-5.96,-12.22,17021.949712062953,0.000778
653,1900-01-01 11:11:25.900,21.499821,39.247948,29.83,1140,-3874,18180,11,-56,241,89.37,-5.77,-12.43,16493.580448162247,0.001827
654,1900-01-01 11:11:26.000,21.499828,39.247952,29.45,2164,-3556,16536,-4,38,245,86.59,-5.89,-12.44,16953.624863137677,0.000882
655,1900-01-01 11:11:26.200,21.499844,39.247952,29.45,1158,-3520,15160,9,40,249,84.81,-6.03,-12.49,17839.08215127673,0.001779
656,1900-01-01 11:11:26.400,21.499859,39.247952,28.5,320,-5222,17688,-20,22,265,81.93,-5.87,-12.69,17070.745267855178,0.001668
657,1900-01-01 11:11:26.500,21.499866,39.247952,28.5,674,-4078,17376,-7,-38,264,80.32,-5.82,-12.85,17885.648548487137,0.000778
658,1900-01-01 11:11:26.600,21.499876,39.247948,28.62,1896,-4930,15126,-26,45,268,77.9,-5.89,-13.13,18047.572800795126,0.001186
659,1900-01-01 11:11:26.800,21.499891,39.247948,28.89,1498,-3764,18498,-8,-87,263,75.47,-6.09,-13.27,17994.863822768984,0.001668
660,1900-01-01 11:11:26.900,21.499899,39.247944,28.89,186,-4408,17488,-17,-58,259,73.06,-6.09,-13.34,17959.717146993156,0.000981
661,1900-01-01 11:11:27.100,21.499914,39.247944,29.24,1164,-3920,17628,2,-59,248,70.76,-6.19,-13.3,17959.717146993156,0.001668
662,1900-01-01 11:11:27.200,21.499922,39.24794,29.24,1136,-3346,16258,-10,-3,243,68.7,-6.44,-13.17,17959.717146993156,0.000981
663,1900-01-01 11:11:27.400,21.499939,39.247932,29.81,1272,-4010,15546,-32,92,233,66.36,-6.58,-13.12,17111.772322001016,0.002064
664,1900-01-01 11:11:27.500,21.499949,39.247929,29.81,1788,-3734,17634,-28,24,236,64.62,-6.59,-13.14,16854.131125632077,0.001154
665,1900-01-01 11:11:27.700,21.499964,39.247921,31.66,886,-4208,16616,11,20,237,61.89,-6.89,-13.26,17140.289962541476,0.001862
666,1900-01-01 11:11:27.800,21.499973,39.247913,31.66,1608,-3466,16386,1,-68,238,60.31,-6.99,-13.13,17423.884985846296,0.001299
667,1900-01-01 11:11:28.000,21.49999,39.247902,33.73,34,-4472,17060,41,-68,223,57.75,-6.95,-12.91,17368.424453588184,0.002206
668,1900-01-01 11:11:28.100,21.5,39.247894,33.73,630,-3018,16996,-18,-14,202,56.26,-6.93,-12.45,17336.60878026611,0.001386
669,1900-01-01 11:11:28.300,21.500015,39.247883,35.49,2416,-2596,17532,11,59,175,54.27,-7.08,-11.84,17247.136805858532,0.002019
670,1900-01-01 11:11:28.400,21.500025,39.247875,35.49,1788,-2496,16218,-13,57,159,53.16,-7.17,-11.42,16522.67193888446,0.001386
671,1900-01-01 11:11:28.500,21.500032,39.247868,36.14,1364,-2070,14776,16,-42,141,51.82,-6.95,-10.9,16440.212893998665,0.001063
672,1900-01-01 11:11:28.700,21.50005,39.247852,36.74,1234,-1102,16276,39,137,102,50.7,-6.61,-9.87,15360.883958939343,0.002597
673,1900-01-01 11:11:28.800,21.500057,39.247845,38.14,1724,-314,15224,26,106,59,50.15,-6.84,-8.57,15288.206827486341,0.001063
674,1900-01-01 11:11:29.000,21.500072,39.247829,38.98,2046,548,14632,-27,52,40,49.7,-6.92,-7.3,16070.143247650283,0.00235
675,1900-01-01 11:11:29.100,21.500082,39.247822,38.98,908,866,15968,15,8,23,49.4,-6.56,-6.59,16018.821304952497,0.001327
676,1900-01-01 11:11:29.300,21.500097,39.247807,39.9,2318,1038,16576,27,52,-14,49.39,-6.54,-5.02,16029.040021161592,0.002278
677,1900-01-01 11:11:29.400,21.500105,39.247799,39.95,1726,2312,15902,26,-54,-37,49.57,-6.38,-3.79,16057.012673595298,0.001215
678,1900-01-01 11:11:29.600,21.500118,39.247784,39.68,1286,2022,14382,-26,97,-56,50.02,-5.96,-2.19,16726.002391486138,0.002121
679,1900-01-01 11:11:29.700,21.500126,39.247772,39.68,252,1094,16652,-33,-143,-57,50.33,-5.91,-1.63,16037.969073420736,0.001527
680,1900-01-01 11:11:29.800,21.500134,39.247765,40.03,-1166,1828,18814,-46,-118,-62,50.85,-5.48,-0.91,16041.93666612607,0.001147
681,1900-01-01 11:11:30.000,21.500149,39.247749,40.01,-804,3094,15908,-6,13,-76,51.36,-5.21,-0.37,16054.319418773253,0.00235
682,1900-01-01 11:11:30.100,21.500156,39.247742,40.01,1042,2118,15912,-100,-67,-76,51.97,-5.43,0.06,16076.58831966534,0.001063
683,1900-01-01 11:11:30.300,21.500172,39.247726,39.98,1198,2228,14692,-38,-39,-80,52.62,-4.83,0.06,16077.664258218605,0.00243
684,1900-01-01 11:11:30.400,21.500181,39.247719,39.98,952,1330,15280,4,16,-83,53.31,-4.25,0.34,15954.742241728633,0.001235
685,1900-01-01 11:11:30.600,21.500196,39.247704,40.9,970,1862,16506,-18,-79,-88,54.08,-4.02,0.9,15422.442997138942,0.002278
686,1900-01-01 11:11:30.700,21.500204,39.247696,40.9,356,1738,15816,36,-118,-90,54.81,-3.55,1.47,15627.477595568645,0.001215
687,1900-01-01 11:11:30.900,21.500221,39.247681,41.9,614,3314,13550,-25,88,-114,55.75,-3.17,2.51,16117.040423104982,0.002446
688,1900-01-01 11:11:31.000,21.500231,39.247673,41.9,-228,3080,15504,32,21,-132,56.67,-2.79,3.23,16163.3903621734,0.001386
689,1900-01-01 11:11:31.200,21.500248,39.247658,43.22,-474,4452,19074,79,53,-124,57.97,-2.59,4.3,16850.69209261151,0.002446
690,1900-01-01 11:11:31.300,21.500257,39.24765,43.22,388,4894,16424,-62,83,-146,58.89,-2.82,5.18,16850.69209261151,0.001299
691,1900-01-01 11:11:31.500,21.500277,39.247635,43.59,2916,3748,17998,33,-187,-128,60.45,-3.48,5.64,17021.122877178226,0.002712
692,1900-01-01 11:11:31.600,21.500286,39.247631,43.59,1414,2668,15246,-6,18,-141,61.33,-3.74,6.2,16490.807257378274,0.001083
693,1900-01-01 11:11:31.800,21.500305,39.247616,43.85,-410,4530,15892,47,17,-173,62.58,-3.43,6.92,16490.807257378274,0.002621
694,1900-01-01 11:11:31.900,21.500315,39.247608,43.89,1196,4238,14242,23,96,-183,64.12,-3.29,8.01,16450.730439709965,0.001386
695,1900-01-01 11:11:32.000,21.500324,39.247604,43.89,-142,4564,17082,14,37,-171,65.52,-3.15,8.89,16593.747858756924,0.001083
696,1900-01-01 11:11:32.200,21.500345,39.247589,44.22,332,3086,16040,-13,3,-174,67.11,-3.12,9.43,17442.03692233221,0.002804
697,1900-01-01 11:11:32.300,21.500355,39.247585,44.22,1182,2196,16878,13,-36,-166,68.39,-3.17,9.84,17487.34410938379,0.001186
698,1900-01-01 11:11:32.500,21.500376,39.247574,44.25,1704,4702,20754,22,105,-175,70.07,-3.06,10.27,17286.020594688645,0.002598
699,1900-01-01 11:11:32.600,21.500385,39.247566,44.25,-592,5892,16678,9,-100,-170,71.27,-3.09,10.6,17286.020594688645,0.001299
700,1900-01-01 11:11:32.800,21.500406,39.247555,45.17,750,4482,14110,23,63,-170,73.05,-3.21,11.0,17310.102830428248,0.002598
701,1900-01-01 11:11:32.900,21.500418,39.247551,45.17,-1690,2600,16662,38,-37,-168,74.07,-3.13,11.24,17270.58389285087,0.001397
702,1900-01-01 11:11:33.000,21.500429,39.247543,45.3,836,4574,18464,13,36,-170,75.46,-2.97,11.7,15440.19999870468,0.001477
703,1900-01-01 11:11:33.200,21.50045,39.247536,45.57,1050,3210,14104,27,178,-174,77.04,-2.97,11.87,15948.85738854041,0.002445
704,1900-01-01 11:11:33.300,21.500462,39.247528,45.57,1204,3776,14948,-7,157,-160,78.27,-3.06,12.04,15948.85738854041,0.00157
705,1900-01-01 11:11:33.500,21.500483,39.24752,45.43,284,3730,15484,-7,-17,-140,79.76,-3.18,11.87,15291.417854469873,0.002477
706,1900-01-01 11:11:33.600,21.500494,39.247513,45.43,-1316,2930,17400,-1,-144,-124,80.75,-3.17,11.65,15235.099605844394,0.001421
707,1900-01-01 11:11:33.800,21.500517,39.247505,45.37,124,2646,14634,0,148,-115,82.1,-3.01,11.13,14991.705173194943,0.002688
708,1900-01-01 11:11:33.900,21.500526,39.247501,45.37,1306,2722,13420,0,28,-97,82.93,-3.0,10.79,14977.997997062224,0.001083
709,1900-01-01 11:11:34.100,21.500549,39.247494,45.74,-1332,2504,14742,-14,-37,-85,83.9,-2.8,10.25,14953.565594867332,0.002658
710,1900-01-01 11:11:34.200,21.500561,39.24749,45.74,112,928,16804,-5,1,-83,84.61,-2.69,9.75,16834.94508455552,0.001397
711,1900-01-01 11:11:34.400,21.500584,39.247482,45.9,-424,352,18750,2,-124,-64,85.38,-2.57,9.12,16832.158744498578,0.002688
712,1900-01-01 11:11:34.500,21.500597,39.247478,46.41,-710,584,17682,8,14,-59,86.01,-2.09,8.57,16827.19037748132,0.001504
713,1900-01-01 11:11:34.700,21.50062,39.247471,46.4,192,876,16356,10,-11,-54,86.5,-2.18,8.04,16367.769915293897,0.002658
714,1900-01-01 11:11:34.800,21.500631,39.247467,46.37,316,1704,16258,6,-71,-45,87.0,-2.02,7.46,16282.937081497306,0.001291
715,1900-01-01 11:11:35.000,21.500656,39.247463,46.21,-210,-112,15252,-6,89,-46,87.43,-1.81,6.92,16299.540361617563,0.002811
716,1900-01-01 11:11:35.200,21.500679,39.247459,45.93,-400,1154,15992,-3,-107,-42,88.01,-1.56,6.39,16299.540361617563,0.002591
717,1900-01-01 11:11:35.300,21.50069,39.247459,45.93,144,1698,17452,21,-88,-43,88.32,-1.19,6.06,16020.978871467249,0.001223
718,1900-01-01 11:11:35.500,21.500715,39.247459,45.78,148,940,16734,1,26,-43,88.79,-1.05,5.72,16761.746687025192,0.00278
719,1900-01-01 11:11:35.600,21.500727,39.247459,45.78,-1128,44,15624,-4,63,-32,89.11,-0.56,5.36,16735.426137388913,0.001334
720,1900-01-01 11:11:35.800,21.50075,39.247459,45.35,-214,-186,17192,-1,-6,-16,89.34,-0.36,4.76,15975.493982972795,0.002557
721,1900-01-01 11:11:35.900,21.500761,39.247456,45.35,-2864,-118,14264,-12,0,-8,89.46,-0.11,4.25,15975.493982972795,0.001262
722,1900-01-01 11:11:36.100,21.500784,39.247456,45.18,706,1218,15974,-13,95,-14,89.58,-0.03,3.75,16097.85501239218,0.002557
723,1900-01-01 11:11:36.200,21.500797,39.247456,45.18,-154,538,16096,29,43,-8,89.68,0.05,3.31,16099.814905768328,0.001446
724,1900-01-01 11:11:36.400,21.50082,39.247456,44.97,-330,-402,16880,-9,-54,-10,89.76,0.0,3.14,16096.749112786718,0.002557
725,1900-01-01 11:11:36.600,21.500843,39.247452,44.86,-1056,-128,17946,-4,-20,-10,89.89,0.11,2.76,16367.225054968847,0.002591
726,1900-01-01 11:11:36.700,21.500854,39.247452,44.86,1214,20,15004,-1,24,-12,89.95,-0.13,2.58,16400.55852707462,0.001223
727,1900-01-01 11:11:36.900,21.500877,39.247452,45.04,-44,-194,16366,21,-11,-13,90.09,-0.23,2.32,16407.290087031437,0.002557
728,1900-01-01 11:11:37.000,21.500889,39.247452,45.04,816,266,16400,-5,-12,-11,90.15,-0.38,2.26,16373.861364992681,0.001334
729,1900-01-01 11:11:37.200,21.500912,39.247452,44.82,472,-186,16506,7,-26,-7,90.26,-0.31,2.04,16367.208925164974,0.002557
730,1900-01-01 11:11:37.300,21.500923,39.247452,44.82,-72,-806,16056,13,-75,-6,90.32,-0.42,1.95,16057.407013587219,0.001223
731,1900-01-01 11:11:37.500,21.500946,39.247452,44.61,-338,-200,15978,-27,131,-14,90.41,-0.26,1.74,16058.852885558172,0.002557
732,1900-01-01 11:11:37.600,21.500957,39.247452,44.61,-368,-586,15508,-13,-2,-11,90.51,-0.27,1.49,16062.24816144988,0.001223
733,1900-01-01 11:11:37.800,21.50098,39.247452,44.48,644,-294,18070,11,65,-4,90.55,-0.17,1.29,15982.826032964258,0.002557
734,1900-01-01 11:11:37.900,21.500994,39.247448,44.48,-858,-168,17208,-1,-142,-5,90.6,-0.14,1.17,16037.102980276706,0.001611
735,1900-01-01 11:11:38.100,21.501015,39.247448,44.8,388,38,14894,-8,55,-8,90.67,0.01,1.08,16083.558437112106,0.002335
736,1900-01-01 11:11:38.200,21.501028,39.247448,44.8,-648,140,16032,2,24,-7,90.7,0.06,0.99,16081.42108148406,0.001446
737,1900-01-01 11:11:38.400,21.501049,39.247448,44.33,928,-376,16078,-28,49,-8,90.77,0.05,0.83,16037.917570557594,0.002335
738,1900-01-01 11:11:38.500,21.50106,39.247448,44.33,-286,-782,16876,-6,-8,-5,90.81,0.16,0.63,16091.0721830461,0.001223
739,1900-01-01 11:11:38.700,21.501083,39.247448,44.5,220,-582,13702,5,110,1,90.82,0.14,0.4,16887.193490926787,0.002557
740,1900-01-01 11:11:38.800,21.501095,39.247448,44.5,-620,-794,17586,-28,-66,4,90.81,0.23,0.33,17002.71625358725,0.001334
741,1900-01-01 11:11:39.000,21.501118,39.247448,44.23,-198,-460,16990,10,2,4,90.75,0.45,0.14,17001.46370169345,0.002557
742,1900-01-01 11:11:39.100,21.501129,39.247448,44.23,-1266,-592,18456,27,-54,9,90.69,0.45,0.13,17587.081736319986,0.001223
743,1900-01-01 11:11:39.300,21.50115,39.247448,44.1,406,-1302,16334,8,24,4,90.61,0.32,0.16,17582.62471873867,0.002335
744,1900-01-01 11:11:39.500,21.501173,39.247448,43.61,920,680,17576,-14,95,7,90.54,0.36,0.17,17578.64943617683,0.002557
745,1900-01-01 11:11:39.600,21.501184,39.247448,43.61,-146,-2,19054,-16,-126,7,90.49,0.35,0.1,16336.850859330265,0.001223
746,1900-01-01 11:11:39.800,21.501207,39.247448,43.58,-1320,-268,15272,-23,-239,4,90.44,0.62,-0.1,17425.625498099056,0.002557
747,1900-01-01 11:11:39.900,21.501217,39.247448,43.58,-238,-438,15080,10,-88,9,90.41,0.68,-0.34,16811.0845575174,0.001112
748,1900-01-01 11:11:40.100,21.50124,39.247448,43.52,-3316,656,17424,23,-400,14,90.37,0.75,-0.43,15282.144875638367,0.002557
749,1900-01-01 11:11:40.300,21.501261,39.247444,42.77,-488,102,16804,14,-97,5,90.32,0.85,-0.45,15088.236742575324,0.002371
750,1900-01-01 11:11:40.400,21.501272,39.247444,42.77,772,-798,14252,25,-14,7,90.28,1.08,-0.52,16022.802875901582,0.001223
751,1900-01-01 11:11:40.600,21.501293,39.247444,42.7,352,-528,14954,-17,71,1,90.25,1.2,-0.37,14967.458167638219,0.002335
752,1900-01-01 11:11:40.700,21.501305,39.247444,42.7,-442,-990,16008,59,138,6,90.2,1.2,-0.48,14967.458167638219,0.001334
753,1900-01-01 11:11:40.900,21.501326,39.247444,42.48,2450,478,13340,6,342,-7,90.13,0.76,0.15,15027.861724144257,0.002335
754,1900-01-01 11:11:41.000,21.501337,39.247444,42.48,-88,1898,18584,15,19,-7,90.14,1.11,0.47,15029.784429591797,0.001223
755,1900-01-01 11:11:41.200,21.501358,39.247444,42.37,-256,728,15020,-13,133,-10,90.18,1.02,0.63,15029.784429591797,0.002335
756,1900-01-01 11:11:41.400,21.501381,39.247444,42.37,-298,70,14702,0,32,-3,90.19,0.91,0.52,15956.113060516964,0.002557
757,1900-01-01 11:11:41.500,21.50139,39.247444,42.07,-1196,206,18358,26,-44,2,90.21,1.08,0.39,15955.176338730951,0.001001
758,1900-01-01 11:11:41.700,21.501413,39.247444,42.12,-450,112,15952,4,6,1,90.23,1.24,0.56,16234.624356602773,0.002557
759,1900-01-01 11:11:41.800,21.501423,39.24744,42.14,448,0,16516,27,74,-4,90.24,1.38,0.64,16560.5286147514,0.001186
760,1900-01-01 11:11:42.000,21.501444,39.24744,42.02,-1566,244,16228,-20,-3,3,90.25,1.72,0.85,16238.747734970206,0.002335
761,1900-01-01 11:11:42.100,21.501455,39.24744,41.77,-1276,538,17070,-22,19,-2,90.24,1.94,0.75,16565.582754615065,0.001223
762,1900-01-01 11:11:42.300,21.501476,39.24744,41.43,-580,-572,15722,11,133,-4,90.23,2.47,0.37,17142.034768369827,0.002335
763,1900-01-01 11:11:42.500,21.501497,39.24744,41.28,-1898,110,17764,16,-103,4,90.21,3.3,0.17,17810.108702644124,0.002335
764,1900-01-01 11:11:42.600,21.501507,39.24744,41.28,-2366,64,18762,-5,-208,12,90.18,3.83,0.11,17841.880169982087,0.001112
765,1900-01-01 11:11:42.800,21.501528,39.24744,40.81,70,908,17784,24,259,8,90.09,4.52,-0.05,17885.10989622373,0.002335
766,1900-01-01 11:11:43.000,21.501547,39.247437,40.0,-1664,-126,15544,10,89,5,89.99,4.84,-0.07,17921.64635294425,0.002135
767,1900-01-01 11:11:43.100,21.501556,39.247437,40.0,-2250,-412,18092,-1,-44,10,89.93,5.07,-0.15,17258.8660114157,0.001001
768,1900-01-01 11:11:43.300,21.501577,39.247437,38.53,-2216,826,17178,-22,-36,7,89.85,5.24,-0.22,17320.976993229913,0.002335
769,1900-01-01 11:11:43.400,21.501585,39.247437,38.53,-1600,-148,16088,11,-19,5,89.79,5.41,-0.43,17320.976993229913,0.00089
770,1900-01-01 11:11:43.600,21.501604,39.247437,37.27,-3266,-450,18612,-16,-119,11,89.73,5.94,-0.6,17320.976993229913,0.002113
771,1900-01-01 11:11:43.800,21.501621,39.247433,36.12,-1374,404,15300,-22,99,7,89.64,5.86,-0.68,16208.972453551767,0.001935
772,1900-01-01 11:11:43.900,21.501631,39.247433,36.12,-3146,-1182,18334,17,-58,7,89.54,5.81,-0.77,16989.443899080394,0.001112
773,1900-01-01 11:11:44.100,21.501648,39.247433,35.86,-1962,-240,15950,11,11,9,89.47,5.58,-0.64,16987.933364597353,0.00189
774,1900-01-01 11:11:44.300,21.501665,39.247433,35.5,-2948,1066,16730,-14,-118,1,89.41,6.6,-0.48,17194.783511286205,0.00189
775,1900-01-01 11:11:44.500,21.501682,39.247429,34.71,-2942,-204,16940,-2,65,-2,89.44,7.7,-0.35,16987.13230654309,0.001935
776,1900-01-01 11:11:44.700,21.501699,39.247429,33.95,-2756,-120,18686,-9,-139,6,89.43,7.5,-0.31,16987.80562638977,0.00189
777,1900-01-01 11:11:44.900,21.501715,39.247429,33.02,-3120,-44,16622,0,19,-2,89.43,8.23,-0.33,16939.859385484873,0.001779
778,1900-01-01 11:11:45.100,21.50173,39.247429,32.03,-3166,472,16572,17,54,3,89.44,8.77,-0.27,16948.55309458598,0.001668
779,1900-01-01 11:11:45.300,21.501743,39.247429,29.67,-3866,86,16650,24,2,1,89.41,9.08,-0.02,16961.768539866356,0.001446
780,1900-01-01 11:11:45.500,21.501755,39.247425,27.97,-3236,760,17878,-9,-46,6,89.4,9.17,0.31,17008.200492703512,0.001397
781,1900-01-01 11:11:45.700,21.501766,39.247425,26.33,-3462,-6,17026,42,-9,-9,89.38,9.56,0.13,17370.25250248251,0.001223
782,1900-01-01 11:11:45.900,21.501778,39.247425,23.71,-3440,672,16134,6,23,4,89.39,9.86,0.6,17370.040644742316,0.001334
783,1900-01-01 11:11:46.100,21.501787,39.247421,22.05,-3124,-214,17458,-33,-77,-3,89.41,10.11,0.58,17374.41095404388,0.001083
784,1900-01-01 11:11:46.300,21.501797,39.247421,19.3,-3570,-76,15870,-2,-90,0,89.43,10.65,0.34,16865.595038420674,0.001112
785,1900-01-01 11:11:46.400,21.501801,39.247421,18.55,-3624,618,18548,-12,-78,3,89.39,11.15,0.58,16895.501413098104,0.000445
786,1900-01-01 11:11:46.600,21.50181,39.247421,18.55,-2376,186,16510,-31,16,2,89.42,10.91,0.57,16680.265345611264,0.001001
787,1900-01-01 11:11:46.800,21.501818,39.247421,17.66,-1752,-510,16604,17,-14,1,89.4,10.11,0.15,16697.212821306435,0.00089
788,1900-01-01 11:11:47.000,21.501825,39.247421,15.95,-432,-190,15896,21,30,3,89.35,8.77,0.3,16555.957356794563,0.000778
789,1900-01-01 11:11:47.200,21.501831,39.247421,13.72,-1218,2226,20346,-33,75,11,89.32,7.35,0.78,15903.004118719206,0.000667
790,1900-01-01 11:11:47.400,21.501839,39.247417,13.72,664,-914,14146,-17,-11,-10,89.3,5.34,0.51,15904.875478921549,0.000981
791,1900-01-01 11:11:47.600,21.501844,39.247417,12.46,838,568,15348,37,-21,11,89.24,4.29,0.24,16105.568353833403,0.000556
792,1900-01-01 11:11:47.700,21.501848,39.247417,12.37,118,518,16642,-2,13,4,89.18,4.01,0.68,16103.88251323264,0.000445
793,1900-01-01 11:11:47.900,21.501854,39.247417,12.37,338,758,16092,-31,-19,2,89.18,3.63,0.69,16652.10833498269,0.000667
794,1900-01-01 11:11:48.100,21.50186,39.247417,12.32,-1538,-642,17758,-2,-159,-8,89.1,4.34,0.66,16676.6181223892,0.000667
795,1900-01-01 11:11:48.300,21.501865,39.247417,12.08,-804,1212,18092,-10,-95,6,89.12,4.43,0.81,16669.003209550356,0.000556
796,1900-01-01 11:11:48.500,21.501873,39.247414,12.25,-138,-22,16668,-5,-29,0,89.08,3.36,0.7,17758.9416351313,0.000942
797,1900-01-01 11:11:48.700,21.501879,39.247414,12.2,202,120,15612,4,38,5,89.05,2.48,0.59,17010.775643691264,0.000667
798,1900-01-01 11:11:48.900,21.501884,39.247414,12.2,732,1130,19424,60,-47,-15,89.13,1.23,1.0,16707.48119855294,0.000556
799,1900-01-01 11:11:49.000,21.501888,39.247414,12.2,1040,3596,16972,25,-42,-91,89.53,0.49,2.33,17143.410745823014,0.000445
800,1900-01-01 11:11:49.200,21.501894,39.247414,12.39,-274,2408,15046,-2,0,-153,90.84,0.54,3.55,17166.838381018213,0.000667
801,1900-01-01 11:11:49.400,21.5019,39.247414,12.81,222,2534,17224,0,-35,-209,92.82,0.47,4.37,17169.016395821865,0.000667
802,1900-01-01 11:11:49.600,21.501905,39.247414,12.92,480,2584,14558,27,16,-251,95.71,0.13,5.14,17418.906624699495,0.000556
803,1900-01-01 11:11:49.700,21.501909,39.247414,12.92,-1552,3482,18062,49,-51,-293,97.92,0.21,5.93,17596.39804050818,0.000445
804,1900-01-01 11:11:49.900,21.501917,39.247414,13.08,-918,4414,20582,9,-32,-353,101.59,0.52,7.33,17275.47000807793,0.00089
805,1900-01-01 11:11:50.000,21.501919,39.247414,13.08,-1518,4160,16896,-20,66,-405,104.62,0.17,8.21,17275.47000807793,0.000222
806,1900-01-01 11:11:50.200,21.501926,39.247414,13.31,228,2488,16426,-2,34,-450,108.67,-0.65,8.83,17220.15749056901,0.000778
807,1900-01-01 11:11:50.400,21.501932,39.247417,13.31,240,3012,15952,41,-96,-458,112.91,-1.58,9.24,17220.15749056901,0.000736
808,1900-01-01 11:11:50.500,21.501936,39.247417,13.64,-40,3920,16768,40,14,-449,117.36,-2.06,9.82,16747.537848889908,0.000445
809,1900-01-01 11:11:50.700,21.501944,39.247421,13.75,-682,4232,18222,-16,-101,-462,122.69,-2.35,10.24,17221.783415198322,0.000981
810,1900-01-01 11:11:50.800,21.501945,39.247421,13.75,1212,3258,15164,37,107,-478,126.38,-2.94,10.31,17336.221964430428,0.000111
811,1900-01-01 11:11:51.000,21.501953,39.247425,14.3,2782,4814,16848,84,32,-491,131.51,-4.15,10.94,17533.763201321046,0.000981
812,1900-01-01 11:11:51.200,21.501959,39.247429,14.3,2154,4786,16486,30,49,-498,135.79,-4.71,11.75,17244.34666782131,0.000785
813,1900-01-01 11:11:51.300,21.501961,39.247429,14.16,578,4702,17462,44,-85,-521,141.18,-5.28,12.24,17244.34666782131,0.000222
814,1900-01-01 11:11:51.500,21.501966,39.247437,14.22,1764,4740,16486,26,28,-527,147.32,-6.01,12.57,17190.99427025674,0.000997
815,1900-01-01 11:11:51.600,21.501968,39.24744,14.22,1278,4636,16190,22,-26,-522,150.89,-6.41,12.66,17173.059599267686,0.000382
816,1900-01-01 11:11:51.800,21.501974,39.247444,13.81,660,2972,16786,28,-46,-490,156.75,-6.98,12.33,16833.722820576557,0.000785
817,1900-01-01 11:11:51.900,21.501974,39.247448,13.81,1660,3076,16072,38,25,-449,160.77,-7.5,11.97,16815.029943476165,0.000414
818,1900-01-01 11:11:52.100,21.501978,39.247459,14.85,1608,1570,16472,2,-1,-374,164.8,-7.99,11.24,16629.710881431463,0.001222
819,1900-01-01 11:11:52.300,21.501982,39.247467,14.85,1970,588,17326,3,-37,-274,167.9,-8.36,9.82,16454.936037554202,0.00094
820,1900-01-01 11:11:52.400,21.501982,39.247471,15.25,2582,136,16326,16,38,-190,170.12,-8.62,8.5,16653.76173721721,0.000414
821,1900-01-01 11:11:52.600,21.501984,39.247482,16.75,2450,92,15076,8,12,-114,171.83,-9.09,7.39,16512.349075767506,0.00116
822,1900-01-01 11:11:52.800,21.501984,39.247494,17.9,2716,12,16666,29,-12,-76,172.94,-9.37,6.37,16529.473554835313,0.001241
823,1900-01-01 11:11:53.000,21.501984,39.247505,19.74,2470,908,15460,15,-11,-58,173.72,-9.25,5.97,15663.924029437834,0.001138
824,1900-01-01 11:11:53.100,21.501984,39.247513,21.0,2658,894,17052,13,-68,-53,174.45,-9.08,5.56,16855.339569406486,0.000828
825,1900-01-01 11:11:53.300,21.501984,39.247524,21.0,1944,496,15260,15,-37,-48,174.91,-8.91,5.13,17142.666537035595,0.001138
826,1900-01-01 11:11:53.500,21.501986,39.24754,21.89,1578,260,17604,2,-116,-25,175.35,-8.79,4.54,17137.461889089645,0.00167
827,1900-01-01 11:11:53.700,21.501986,39.247551,22.78,2070,-124,17010,1,-21,-21,175.59,-8.84,4.02,15542.600683283348,0.001138
828,1900-01-01 11:11:53.900,21.501987,39.247566,25.08,2380,54,14072,-11,68,-17,175.78,-8.81,3.57,16341.723164954177,0.001556
829,1900-01-01 11:11:54.100,21.501987,39.247578,25.74,1508,130,15420,-6,-49,-5,175.88,-8.73,3.05,16383.876708520484,0.001241
830,1900-01-01 11:11:54.200,21.501987,39.247589,25.74,2874,-436,16210,-4,86,-4,175.93,-8.49,2.7,16412.041189321943,0.001138
831,1900-01-01 11:11:54.400,21.501989,39.247601,26.19,2702,758,17774,3,-14,1,175.93,-8.28,2.34,16412.041189321943,0.001261
832,1900-01-01 11:11:54.600,21.501989,39.247616,26.81,2564,496,18712,14,96,-1,175.9,-8.17,2.08,17261.526351977103,0.001552
833,1900-01-01 11:11:54.800,21.501991,39.247631,26.81,1098,-242,15852,9,-28,3,175.91,-8.13,1.92,17846.08573329177,0.001568
834,1900-01-01 11:11:54.900,21.501991,39.247639,27.3,1256,-36,17070,15,-56,3,175.89,-8.04,1.77,17145.045931697005,0.000828
835,1900-01-01 11:11:55.100,21.501993,39.247654,28.56,1602,-208,17946,0,-17,2,175.87,-7.8,1.67,17018.05370775401,0.001568
836,1900-01-01 11:11:55.300,21.501993,39.247673,29.58,1762,1012,16700,24,-19,12,175.82,-7.61,1.44,17025.525425078664,0.001966
837,1900-01-01 11:11:55.400,21.501995,39.247681,29.58,1684,-128,16942,26,-31,16,175.73,-7.51,1.4,16785.179176881014,0.000857
838,1900-01-01 11:11:55.600,21.501995,39.2477,30.28,2402,494,16120,23,29,11,175.63,-7.31,1.37,16727.474525462592,0.001966
839,1900-01-01 11:11:55.800,21.501997,39.247715,30.83,1610,-190,16250,14,-59,14,175.53,-7.35,1.33,16334.46050532432,0.001568
840,1900-01-01 11:11:56.000,21.501999,39.247734,30.83,884,-596,16642,4,37,12,175.43,-7.1,1.33,16331.296458028064,0.001978
841,1900-01-01 11:11:56.100,21.501999,39.247742,31.67,1654,770,15468,-3,41,9,175.31,-6.75,1.29,16329.919289451494,0.000828
842,1900-01-01 11:11:56.300,21.502001,39.247761,33.32,1150,238,17344,-3,-122,12,175.19,-6.47,1.2,15936.2154854909,0.001978
843,1900-01-01 11:11:56.500,21.502003,39.24778,33.32,2124,-108,15888,18,73,13,175.07,-6.38,1.1,15937.626674006391,0.001978
844,1900-01-01 11:11:56.600,21.502003,39.247787,33.68,1234,-1130,15104,-1,49,10,174.94,-6.34,1.08,16811.040895792266,0.000724
845,1900-01-01 11:11:56.800,21.502005,39.247807,34.51,640,848,16848,1,-86,12,174.83,-6.12,1.06,15939.522703017177,0.002081
846,1900-01-01 11:11:57.000,21.502007,39.247826,34.51,1276,256,16764,3,-10,12,174.71,-5.91,1.01,16742.657375697563,0.001978
847,1900-01-01 11:11:57.100,21.502008,39.247837,34.61,2146,-256,15216,14,-1,14,174.59,-5.92,0.92,16814.248481570623,0.001143
848,1900-01-01 11:11:57.300,21.50201,39.247856,34.83,1642,282,16692,-8,81,11,174.47,-5.97,0.9,16814.248481570623,0.001978
849,1900-01-01 11:11:57.500,21.502012,39.247875,36.15,1446,-334,16750,-14,40,9,174.34,-5.92,0.75,16757.844014072933,0.001978
850,1900-01-01 11:11:57.600,21.502012,39.247887,36.15,1274,-412,16934,5,-95,13,174.26,-5.96,0.67,16801.700271103517,0.001241
851,1900-01-01 11:11:57.800,21.502016,39.247906,37.08,494,-956,15988,9,-44,17,174.12,-6.01,0.63,16986.756488511866,0.002015
852,1900-01-01 11:11:58.000,21.502018,39.247925,37.08,1004,-96,17540,24,-37,26,173.93,-5.89,0.56,16986.756488511866,0.001978
853,1900-01-01 11:11:58.100,21.502018,39.247936,37.24,1618,-408,17682,17,50,20,173.68,-5.74,0.69,16080.923356573776,0.001138
854,1900-01-01 11:11:58.300,21.502022,39.247955,37.36,1854,682,14180,-1,21,23,173.4,-6.02,0.71,16511.74624320517,0.002015
855,1900-01-01 11:11:58.500,21.502024,39.247978,38.04,1024,-50,16048,23,-56,24,173.12,-5.31,0.57,16129.436691961688,0.00239
856,1900-01-01 11:11:58.700,21.502026,39.248001,39.09,3518,-1434,16432,-11,118,22,172.84,-5.31,0.6,15703.16044622865,0.00239
857,1900-01-01 11:11:58.900,21.502029,39.24802,39.54,690,424,15664,-10,-142,32,172.55,-5.65,0.62,16080.835799174121,0.001994
858,1900-01-01 11:11:59.100,21.502031,39.248043,40.53,896,774,15628,-3,19,19,172.26,-5.12,0.54,16500.416964428507,0.00239
859,1900-01-01 11:11:59.300,21.502035,39.248066,40.53,2008,80,16412,-21,-25,23,172.02,-5.14,0.55,16436.634692052994,0.002421
860,1900-01-01 11:11:59.400,21.502037,39.248077,41.0,1704,-146,16558,-14,32,22,171.76,-5.25,0.41,16500.23078626478,0.00116
861,1900-01-01 11:11:59.600,21.502039,39.2481,41.17,52,-16,17890,7,-105,23,171.48,-5.18,0.28,16500.23078626478,0.00239
862,1900-01-01 11:11:59.800,21.502043,39.248123,42.11,1736,-320,15976,-9,-24,23,171.25,-5.05,0.26,16646.08951075297,0.002421
863,1900-01-01 11:12:00.000,21.502047,39.248146,43.03,754,852,15120,-10,66,12,171.04,-4.76,0.41,16182.742660006677,0.002421
864,1900-01-01 11:12:00.200,21.50205,39.248169,43.83,2248,-334,16770,-18,-142,1,170.94,-4.99,0.3,16183.025551484494,0.002403
865,1900-01-01 11:12:00.300,21.502052,39.24818,43.83,246,-398,16162,-39,-64,9,170.87,-4.67,0.18,16183.025551484494,0.00116
866,1900-01-01 11:12:00.500,21.502056,39.248203,43.87,418,-640,16188,-20,25,2,170.81,-4.58,0.0,16239.624379892535,0.002421
867,1900-01-01 11:12:00.700,21.50206,39.248226,44.13,1250,974,14918,16,40,-2,170.79,-4.53,0.09,16192.795187984068,0.002421
868,1900-01-01 11:12:00.900,21.502066,39.248253,44.13,1312,774,16612,4,-29,-7,170.85,-4.62,0.36,16242.259079327605,0.002872
869,1900-01-01 11:12:01.000,21.502068,39.248264,44.53,894,444,14994,-11,-2,-5,170.94,-4.52,0.46,16681.69547737879,0.00116
870,1900-01-01 11:12:01.200,21.502071,39.248287,44.74,1586,-552,18272,-1,-27,-8,171.02,-4.43,0.41,16669.643787435893,0.002403
871,1900-01-01 11:12:01.400,21.502075,39.24831,44.89,1352,884,16654,20,79,-9,171.14,-4.6,0.58,15775.497963614334,0.002421
872,1900-01-01 11:12:01.600,21.502079,39.248337,44.89,808,86,14088,10,16,-15,171.27,-4.65,0.85,16705.052289651776,0.002829
873,1900-01-01 11:12:01.700,21.502081,39.248348,45.08,960,962,15740,6,-50,-28,171.5,-4.43,1.22,16280.823689236366,0.00116
874,1900-01-01 11:12:01.900,21.502085,39.248371,46.1,774,1472,18228,11,-99,-30,171.88,-4.3,1.59,16280.823689236366,0.002421
875,1900-01-01 11:12:02.100,21.502089,39.248398,46.81,1324,1900,16224,4,-33,-34,172.28,-4.43,1.88,16328.496807728505,0.002829
876,1900-01-01 11:12:02.200,21.50209,39.248409,46.81,1968,450,16672,3,16,-36,172.56,-4.44,2.01,16773.7060901877,0.001143
877,1900-01-01 11:12:02.400,21.502094,39.248436,47.04,1392,1284,15846,-8,20,-44,172.97,-4.44,2.26,16773.7060901877,0.002829
878,1900-01-01 11:12:02.600,21.502098,39.248463,47.63,342,894,17476,7,-59,-40,173.45,-4.26,2.49,16757.991287740904,0.002829
879,1900-01-01 11:12:02.800,21.5021,39.248489,48.09,572,1588,19062,8,-11,-41,173.96,-4.25,2.72,17557.57944592591,0.002699
880,1900-01-01 11:12:02.900,21.502102,39.248501,48.09,1666,968,12866,-32,217,-37,174.26,-4.34,2.73,17557.57944592591,0.001261
881,1900-01-01 11:12:03.100,21.502106,39.248528,48.24,1386,434,18306,-8,-19,-25,174.56,-4.27,2.58,16375.49889316353,0.002829
882,1900-01-01 11:12:03.300,21.502108,39.248554,49.12,1764,1234,15330,-5,54,-25,174.83,-4.22,2.44,16362.888375833894,0.002699
883,1900-01-01 11:12:03.500,21.502111,39.248581,49.97,716,534,16288,-1,-59,-23,175.1,-4.14,2.42,16332.896130202997,0.002813
884,1900-01-01 11:12:03.700,21.502113,39.248608,49.97,916,724,16690,-1,-29,-21,175.31,-4.16,2.37,16332.896130202997,0.002802
885,1900-01-01 11:12:03.800,21.502115,39.248623,50.54,1086,292,15560,-8,97,-17,175.49,-4.1,2.23,16316.34959174386,0.001568
886,1900-01-01 11:12:04.000,21.502117,39.24865,50.69,1402,234,17546,5,-86,-5,175.63,-4.2,1.92,16717.66789956063,0.002802
887,1900-01-01 11:12:04.200,21.502119,39.248676,50.69,544,214,16278,-16,-16,-5,175.68,-4.19,1.73,16315.864549572603,0.002699
888,1900-01-01 11:12:04.300,21.502121,39.248692,50.92,658,448,16890,14,3,-5,175.74,-3.98,1.49,16303.498888275486,0.00167
889,1900-01-01 11:12:04.500,21.502123,39.248718,50.92,2152,120,14508,-4,106,-8,175.78,-4.18,1.4,15328.0983817302,0.002699
890,1900-01-01 11:12:04.600,21.502123,39.248734,51.22,886,-124,15302,-9,30,-6,175.84,-4.03,1.27,15346.52560027839,0.001655
891,1900-01-01 11:12:04.800,21.502127,39.24876,51.69,1278,-816,14078,17,9,-2,175.9,-3.79,1.09,15355.776242183265,0.002726
892,1900-01-01 11:12:05.000,21.502129,39.248787,51.81,1162,578,17540,12,-1,-4,175.97,-3.54,1.13,16882.49341773898,0.002802
893,1900-01-01 11:12:05.200,21.502131,39.248817,51.81,1676,-562,16842,2,33,-5,176.02,-3.71,1.13,16900.305677708908,0.003112
894,1900-01-01 11:12:05.300,21.502132,39.248829,51.98,938,702,17984,8,23,-3,176.06,-3.53,1.16,16891.929789103433,0.001246
895,1900-01-01 11:12:05.500,21.502134,39.248859,52.15,2006,632,16544,-23,-18,-6,176.12,-3.76,1.19,16592.304722370547,0.003112
896,1900-01-01 11:12:05.700,21.502136,39.248886,53.65,508,-174,14520,-15,48,-8,176.17,-3.49,0.98,16084.697572537694,0.002802
897,1900-01-01 11:12:05.900,21.502138,39.248917,53.65,1096,654,16044,11,78,-7,176.22,-3.36,0.88,15173.850137654583,0.003215
898,1900-01-01 11:12:06.000,21.50214,39.248932,54.05,-192,852,14054,0,208,-6,176.3,-3.79,0.84,14840.305791997684,0.001568
899,1900-01-01 11:12:06.200,21.502142,39.248962,54.05,620,200,15148,-15,129,-10,176.34,-3.73,0.86,14866.33956291864,0.003112
900,1900-01-01 11:12:06.300,21.502142,39.248978,54.09,2142,-794,14826,-1,-59,-4,176.39,-3.55,0.76,14866.33956291864,0.001655
901,1900-01-01 11:12:06.400,21.502144,39.248989,54.05,1076,-680,14752,1,18,-5,176.44,-3.38,0.69,15186.399704999207,0.00116
902,1900-01-01 11:12:06.600,21.502146,39.24902,54.05,1398,568,16956,17,43,-5,176.5,-3.27,0.71,14890.138212924687,0.003215
903,1900-01-01 11:12:06.700,21.502148,39.249035,54.22,216,84,16656,16,-13,-5,176.58,-3.08,0.77,14794.031904791878,0.001568
904,1900-01-01 11:12:06.900,21.50215,39.249065,55.04,1378,542,14594,-2,171,-13,176.65,-3.35,0.86,16675.41627666308,0.003112
905,1900-01-01 11:12:07.100,21.502151,39.249092,55.04,572,290,14568,0,122,-12,176.71,-3.15,0.85,16668.341849146243,0.002796
906,1900-01-01 11:12:07.200,21.502151,39.249107,55.06,744,306,16988,11,-43,-6,176.8,-2.97,0.91,17000.38128984171,0.001552
907,1900-01-01 11:12:07.400,21.502153,39.249138,55.06,276,98,17522,24,-30,-6,176.85,-2.68,0.98,17000.38128984171,0.003215
908,1900-01-01 11:12:07.500,21.502155,39.249153,55.55,394,512,17356,14,-17,-6,176.93,-2.84,1.18,17378.805022210243,0.001568
909,1900-01-01 11:12:07.700,21.502157,39.249184,55.55,728,1598,16190,-1,8,-6,176.98,-2.83,1.27,17368.019921683644,0.003215
910,1900-01-01 11:12:07.800,21.502157,39.249199,55.57,1468,802,18384,-1,-145,-7,177.05,-2.63,1.26,16683.756411551927,0.001552
911,1900-01-01 11:12:08.000,21.502159,39.249229,55.57,-638,-14,16660,-25,48,-10,177.11,-2.33,1.18,16210.127575068618,0.003112
912,1900-01-01 11:12:08.100,21.502161,39.249245,55.68,1660,-116,16136,-1,194,-11,177.19,-2.55,1.01,16156.13530520217,0.00167
913,1900-01-01 11:12:08.300,21.502163,39.249275,55.68,806,50,15470,-13,-23,-6,177.23,-2.57,0.92,16144.512008729158,0.003112
914,1900-01-01 11:12:08.400,21.502163,39.24929,55.77,408,24,15196,-1,77,-10,177.29,-2.29,0.81,16153.531378618112,0.001552
915,1900-01-01 11:12:08.500,21.502165,39.249306,55.94,524,-162,17608,16,-5,-3,177.34,-2.26,0.84,16683.032098512547,0.00167
916,1900-01-01 11:12:08.700,21.502167,39.249336,55.94,752,432,17002,20,-87,0,177.38,-2.31,0.9,17015.619412763088,0.003112
917,1900-01-01 11:12:08.800,21.502167,39.249352,56.12,896,650,16666,3,14,-5,177.41,-2.15,0.99,17284.942464468895,0.001655
918,1900-01-01 11:12:09.000,21.502169,39.249382,56.12,526,858,17266,-2,20,-6,177.45,-2.2,1.01,17023.75822196732,0.003112
919,1900-01-01 11:12:09.100,21.502169,39.249397,56.48,684,-66,17478,13,-30,-5,177.51,-2.1,0.94,16682.46732351063,0.001552
920,1900-01-01 11:12:09.300,21.502171,39.249428,56.48,166,522,16630,-11,4,-5,177.55,-2.19,0.96,16640.843608423223,0.003215
921,1900-01-01 11:12:09.400,21.502172,39.249443,56.62,436,290,16446,-11,46,-6,177.61,-2.25,0.89,16451.805736757287,0.001556
922,1900-01-01 11:12:09.500,21.502172,39.249458,56.73,552,30,13990,-12,-21,9,177.59,-2.22,0.64,16446.865111625375,0.001552
923,1900-01-01 11:12:09.700,21.502174,39.249489,56.73,72,-1030,15772,-4,-43,18,177.49,-2.0,0.35,15772.269462572594,0.003215
924,1900-01-01 11:12:09.800,21.502174,39.249504,56.91,92,-6,16500,-11,-18,16,177.35,-1.58,0.16,15228.969236294359,0.001552
925,1900-01-01 11:12:09.900,21.502174,39.249519,57.05,2,-684,14596,-7,49,17,177.17,-1.35,-0.14,15774.941648069575,0.001552
926,1900-01-01 11:12:10.100,21.502176,39.24955,57.05,-594,-156,15228,16,-53,19,177.05,-1.11,-0.29,16319.004994177802,0.003215
927,1900-01-01 11:12:10.200,21.502178,39.249565,57.19,560,-296,17422,35,28,15,176.93,-0.94,-0.37,16320.684544466878,0.001568
928,1900-01-01 11:12:10.300,21.502178,39.24958,57.08,214,54,16318,10,-74,9,176.84,-0.84,-0.26,16556.118144057804,0.001552
929,1900-01-01 11:12:10.500,21.50218,39.249611,57.05,-874,-402,16554,-23,-14,0,176.83,-0.65,-0.22,16994.27585982998,0.003215
930,1900-01-01 11:12:10.600,21.50218,39.249626,57.05,440,348,17480,21,9,2,176.82,-0.5,-0.27,16560.263162160194,0.001552
931,1900-01-01 11:12:10.700,21.502182,39.249641,57.03,754,-588,16986,29,-92,5,176.79,-0.57,-0.29,16562.248518845503,0.001568
932,1900-01-01 11:12:10.900,21.502184,39.249676,57.03,-452,-646,15346,-14,109,-2,176.8,-0.45,-0.2,15544.14024640797,0.003628
933,1900-01-01 11:12:11.000,21.502184,39.249691,56.92,-334,144,15246,-17,50,-8,176.82,-0.29,-0.15,15546.255369059136,0.001552
934,1900-01-01 11:12:11.100,21.502186,39.249706,56.86,-214,340,15542,3,-77,-8,176.87,-0.24,-0.14,15546.255369059136,0.001568
935,1900-01-01 11:12:11.300,21.502188,39.249737,56.45,-588,322,16338,16,-156,-2,176.92,0.07,-0.17,16342.048096857383,0.003215
936,1900-01-01 11:12:11.400,21.502188,39.249752,56.45,-220,-134,18138,7,-90,0,176.96,0.1,-0.14,16342.653640091623,0.001552
937,1900-01-01 11:12:11.500,21.50219,39.249767,56.35,-474,-364,19412,-3,-231,-2,177.01,0.06,-0.05,18132.691692079254,0.001568
938,1900-01-01 11:12:11.700,21.502192,39.249798,56.18,-122,446,15734,-23,-5,-11,177.06,0.11,-0.01,18131.728102969115,0.003215
939,1900-01-01 11:12:11.800,21.502192,39.249809,56.18,-688,-222,18126,-21,-44,-8,177.12,0.19,-0.07,16434.319943338087,0.001138
940,1900-01-01 11:12:11.900,21.502192,39.249825,55.96,-398,-516,16152,-15,83,-8,177.2,0.26,-0.25,16163.057384047115,0.001655
941,1900-01-01 11:12:12.100,21.502193,39.249855,55.96,-266,482,16428,-1,-4,-5,177.24,0.15,-0.27,16168.960139724508,0.003106
942,1900-01-01 11:12:12.200,21.502195,39.24987,55.3,-562,1000,15740,2,-61,-3,177.27,0.05,-0.29,15752.407054161597,0.001568
943,1900-01-01 11:12:12.400,21.502197,39.249901,55.25,-1040,900,15514,18,-91,0,177.31,0.17,-0.3,15523.76487840498,0.003215
944,1900-01-01 11:12:12.500,21.502197,39.249916,55.25,96,-576,12612,-12,189,-11,177.35,0.21,-0.22,15524.41419184634,0.001552
945,1900-01-01 11:12:12.600,21.502197,39.249931,55.09,306,-296,13766,-10,46,-6,177.41,0.18,-0.19,14900.557439236964,0.001552
946,1900-01-01 11:12:12.800,21.502199,39.249962,55.09,-666,86,17036,5,-5,-2,177.45,0.26,-0.24,14901.240887926078,0.003215
947,1900-01-01 11:12:12.900,21.502201,39.249973,54.83,302,126,14900,5,31,-3,177.47,0.32,-0.15,15949.159350887432,0.00116
948,1900-01-01 11:12:13.100,21.502201,39.250004,54.83,172,400,16742,7,64,-2,177.48,0.41,-0.11,15948.678816754697,0.003207
949,1900-01-01 11:12:13.200,21.502203,39.250019,54.72,76,-114,15948,17,-70,3,177.47,0.43,-0.04,15948.678816754697,0.001568
950,1900-01-01 11:12:13.400,21.502203,39.25005,54.72,-356,388,15842,-15,287,-4,177.47,0.43,0.04,15948.418981203122,0.003207
951,1900-01-01 11:12:13.500,21.502205,39.250065,54.33,-998,-90,16904,4,169,9,177.42,0.55,-0.08,15948.418981203122,0.001568
952,1900-01-01 11:12:13.600,21.502205,39.25008,54.08,-100,-58,14756,-10,62,14,177.28,0.32,-0.2,16905.62462614144,0.001552
953,1900-01-01 11:12:13.800,21.502207,39.250107,54.08,-28,184,17736,13,28,11,177.19,0.38,-0.3,17589.325512935397,0.002802
954,1900-01-01 11:12:13.900,21.502207,39.250122,53.82,-208,108,19574,-24,-56,6,177.07,0.53,-0.4,17588.379914022782,0.001552
955,1900-01-01 11:12:14.100,21.502209,39.250153,53.82,-446,-362,17588,-24,40,6,177.01,0.5,-0.57,17737.548421357445,0.003215
956,1900-01-01 11:12:14.200,21.502211,39.250164,53.63,476,-152,14120,10,19,4,176.95,0.27,-0.8,17589.561449905454,0.00116
957,1900-01-01 11:12:14.400,21.502213,39.250195,53.07,-1554,1398,17758,16,-13,-7,176.97,0.66,-0.61,17209.813944374877,0.003215
958,1900-01-01 11:12:14.600,21.502213,39.250221,53.07,688,352,15558,16,70,-6,177.01,0.65,-0.38,17209.813944374877,0.00269
959,1900-01-01 11:12:14.800,21.502214,39.250252,52.91,-276,442,17204,11,177,-10,177.06,0.77,-0.29,17212.972433603674,0.003209
960,1900-01-01 11:12:14.900,21.502216,39.250267,52.67,-430,96,18070,-6,3,-5,177.11,0.78,-0.19,17210.252525747554,0.001568
961,1900-01-01 11:12:15.100,21.502218,39.250294,52.47,-706,174,16578,9,-36,-2,177.15,0.81,-0.16,17219.359105379037,0.002802
962,1900-01-01 11:12:15.300,21.50222,39.25032,52.47,-868,40,17530,14,-59,0,177.17,0.86,-0.14,17552.33887548893,0.002699
963,1900-01-01 11:12:15.400,21.50222,39.250336,52.3,-1068,190,15876,-7,-57,-1,177.19,1.13,-0.06,17561.684884998933,0.001655
964,1900-01-01 11:12:15.600,21.502222,39.250362,52.3,-1042,324,18654,16,-116,3,177.2,1.49,-0.13,17560.86842955097,0.002699
965,1900-01-01 11:12:15.700,21.502222,39.250378,52.14,-1040,-968,17740,5,-38,0,177.21,1.77,-0.05,16240.44753077944,0.001655
966,1900-01-01 11:12:15.900,21.502224,39.250404,51.3,-482,-736,16206,11,-7,0,177.21,1.99,-0.01,17010.603046335542,0.002699
967,1900-01-01 11:12:16.100,21.502226,39.250431,51.3,-672,434,14724,10,62,-2,177.21,2.18,0.01,16248.512301130833,0.002802
968,1900-01-01 11:12:16.200,21.502226,39.250446,50.66,-1314,-546,16970,-22,165,-4,177.22,2.48,0.1,15966.08242494069,0.001552
969,1900-01-01 11:12:16.400,21.502228,39.250473,50.36,-1398,634,15906,9,-109,1,177.25,2.54,0.06,15728.991576067425,0.002802
970,1900-01-01 11:12:16.600,21.50223,39.2505,49.83,-2114,934,15668,7,-50,-2,177.26,3.25,0.03,15729.38409474446,0.002802
971,1900-01-01 11:12:16.800,21.502232,39.250526,49.6,-552,-448,15038,10,147,-2,177.27,3.02,-0.01,15559.840744686302,0.002699
972,1900-01-01 11:12:17.000,21.502234,39.250553,48.99,-142,-478,14880,20,86,2,177.24,3.02,0.03,15595.967940464612,0.002802
973,1900-01-01 11:12:17.200,21.502235,39.25058,48.99,-1754,168,15496,10,-33,3,177.23,3.38,0.11,15152.062961854403,0.002796
974,1900-01-01 11:12:17.300,21.502235,39.250591,48.53,-1928,-178,16630,-9,2,0,177.23,4.04,0.16,15595.967940464612,0.001138
975,1900-01-01 11:12:17.500,21.502237,39.250618,48.41,-1732,-378,15048,-15,18,-1,177.24,4.33,0.09,16742.231273041238,0.002802
976,1900-01-01 11:12:17.700,21.502239,39.250641,48.43,-2350,280,19072,6,-107,3,177.25,4.85,-0.03,16875.676934570656,0.00239
977,1900-01-01 11:12:17.900,21.502243,39.250668,48.02,-2054,288,16750,3,33,-1,177.24,5.18,-0.06,16882.83447765807,0.002829
978,1900-01-01 11:12:18.100,21.502245,39.250694,47.98,-2112,-84,17088,-8,-83,3,177.24,5.33,-0.02,17251.105587758717,0.002699
979,1900-01-01 11:12:18.300,21.502247,39.250717,46.92,-2354,-432,15326,16,-10,1,177.22,5.36,-0.05,16884.914213581305,0.00239
980,1900-01-01 11:12:18.500,21.502249,39.25074,45.22,-2636,364,18946,11,-125,4,177.2,5.66,0.07,16085.6757396138,0.00239
981,1900-01-01 11:12:18.700,21.502251,39.250763,45.22,-2070,278,15012,-12,2,-3,177.2,5.95,0.09,16080.2151726897,0.00239
982,1900-01-01 11:12:18.900,21.502253,39.250786,43.59,-1848,654,15944,17,-67,-3,177.24,6.07,0.06,16222.00308223371,0.00239
983,1900-01-01 11:12:19.000,21.502253,39.250797,41.33,-1844,-330,16114,1,98,-12,177.35,6.04,0.11,16221.547891616263,0.001138
984,1900-01-01 11:12:19.200,21.502253,39.250816,38.77,-1614,184,16164,-11,30,-10,177.44,6.08,0.17,16279.177866219166,0.001966
985,1900-01-01 11:12:19.400,21.502253,39.250835,37.89,-1636,608,17942,0,-20,-8,177.55,6.2,0.17,16764.9303010779,0.001966
