Counter,Time,Latitude,Longitude,Speed(km/h),Ax,Ay,Az,Gx,Gy,Gz,Yaw,Pitch,Roll,acceleration_magnitude,distance
1,1900-01-01 21:46:59.600,21.801945,39.081669,0.0,-142,-50,15962,0,0,0,0.01,-0.01,0.41,0.0,0.0
2,1900-01-01 21:47:07.000,21.801945,39.081665,0.0,112,-64,17094,0,-1,0,0.01,-0.01,0.38,0.0,0.000413
3,1900-01-01 21:47:07.100,21.801945,39.081665,0.0,-44,128,16368,-1,1,1,0.0,0.0,0.34,16368.076368345794,0.0
4,1900-01-01 21:47:07.200,21.801945,39.081665,0.0,0,-188,16198,0,2,0,0.0,0.0,0.31,16368.020650035849,0.0
5,1900-01-01 21:47:07.300,21.801945,39.081665,0.0,62,160,16538,-1,-2,0,-0.0,0.01,0.28,16368.079789639345,0.0
6,1900-01-01 21:47:07.400,21.801945,39.081665,0.0,-92,-26,15992,-1,2,0,-0.0,0.01,0.26,16512.02046994855,0.0
7,1900-01-01 21:47:07.500,21.801945,39.081665,0.0,-56,-188,16512,0,-1,1,-0.0,0.01,0.22,16512.77953586252,0.0
8,1900-01-01 21:47:07.600,21.801945,39.081665,0.0,82,166,16640,-1,-1,0,-0.01,0.02,0.2,16512.02483040769,0.0
9,1900-01-01 21:47:07.700,21.801945,39.081665,0.0,-12,178,16112,-3,3,1,-0.01,0.02,0.18,16512.83876261135,0.0
10,1900-01-01 21:47:07.800,21.801945,39.081665,0.0,112,-74,17098,1,3,0,-0.01,0.03,0.16,16112.859584816099,0.0
11,1900-01-01 21:47:07.900,21.801945,39.081665,0.0,-30,170,15960,-4,2,0,-0.01,0.02,0.14,16112.37996076309,0.0
12,1900-01-01 21:47:08.000,21.801945,39.081665,0.0,-176,-282,16106,-1,0,1,-0.01,0.04,0.12,16106.38357918996,0.0
13,1900-01-01 21:47:08.100,21.801945,39.081665,0.0,282,110,16816,-1,-4,2,-0.01,0.01,0.1,16038.405282321557,0.0
14,1900-01-01 21:47:08.200,21.801945,39.081665,0.0,16,202,15866,-2,-2,0,-0.02,0.02,0.09,16106.500799366695,0.0
15,1900-01-01 21:47:08.300,21.801945,39.081665,0.0,-174,-250,16038,1,-2,0,-0.02,0.08,0.08,16816.253566118703,0.0
16,1900-01-01 21:47:08.400,21.801945,39.081665,0.0,180,-126,16900,1,-3,1,-0.02,0.08,0.07,16122.032254030508,0.0
17,1900-01-01 21:47:08.500,21.801945,39.081665,0.0,88,28,16888,-1,-3,0,-0.03,0.06,0.06,16122.653131541347,0.0
18,1900-01-01 21:47:08.600,21.801945,39.081665,0.0,-72,114,16122,-1,2,0,-0.02,0.08,0.05,16888.116058341144,0.0
19,1900-01-01 21:47:08.700,21.801945,39.081665,0.0,-86,-204,15990,0,-2,1,-0.02,0.08,0.03,16122.073936066663,0.0
20,1900-01-01 21:47:08.800,21.801945,39.081665,0.0,56,40,16890,-1,-3,0,-0.02,0.08,0.03,16122.127154938333,0.0
21,1900-01-01 21:47:08.900,21.801945,39.081665,0.0,-28,170,16122,-4,0,0,-0.02,0.09,0.02,16224.914791763931,0.0
22,1900-01-01 21:47:09.000,21.801945,39.081665,0.0,-50,-192,16224,1,1,0,-0.03,0.08,0.01,16484.102038024394,0.0
23,1900-01-01 21:47:09.100,21.801945,39.081669,0.0,72,-170,16850,0,0,0,-0.03,0.08,0.01,16224.039077862208,0.000413
24,1900-01-01 21:47:09.200,21.801945,39.081669,0.0,42,288,16484,-4,1,0,-0.03,0.09,-0.01,16364.959395000038,0.0
25,1900-01-01 21:47:09.300,21.801945,39.081669,0.0,-90,22,16056,0,2,1,-0.03,0.08,-0.01,16484.053991661152,0.0
26,1900-01-01 21:47:09.400,21.801945,39.081669,0.0,-152,-182,16364,2,-2,1,-0.03,0.09,-0.02,16364.82777177933,0.0
27,1900-01-01 21:47:09.500,21.801945,39.081669,0.0,36,164,16746,-3,-3,1,-0.03,0.1,-0.03,16116.266316985457,0.0
28,1900-01-01 21:47:09.600,21.801945,39.081669,0.0,14,246,15912,-2,2,0,-0.03,0.1,-0.03,16364.28757997121,0.0
29,1900-01-01 21:47:09.700,21.801945,39.081669,0.0,-126,-250,16116,1,-1,0,-0.03,0.1,-0.03,16386.860223972133,0.0
30,1900-01-01 21:47:09.800,21.801945,39.081669,0.0,106,-96,16966,-1,0,-1,-0.03,0.1,-0.03,16116.103375195878,0.0
31,1900-01-01 21:47:09.900,21.801945,39.081669,0.0,42,272,16386,-3,1,0,-0.03,0.1,-0.03,16116.778462211361,0.0
32,1900-01-01 21:47:10.000,21.801945,39.081669,0.0,-182,-56,16006,-1,2,0,-0.03,0.09,-0.03,16386.14951719897,0.0
33,1900-01-01 21:47:10.100,21.801945,39.081669,0.0,-164,-242,16100,0,-1,-1,-0.03,0.1,-0.04,16100.03229810425,0.0
34,1900-01-01 21:47:10.200,21.801945,39.081669,0.0,118,-16,16822,-2,-2,0,-0.03,0.1,-0.04,16100.40794514226,0.0
35,1900-01-01 21:47:10.300,21.801945,39.081669,0.0,-28,232,15974,-3,1,0,-0.03,0.1,-0.04,16482.03154953903,0.0
36,1900-01-01 21:47:10.400,21.801945,39.081669,0.0,-100,-296,16482,1,-2,0,-0.03,0.1,-0.06,16482.635468880577,0.0
37,1900-01-01 21:47:10.500,21.801945,39.081669,0.0,4,142,16640,-1,-2,0,-0.03,0.1,-0.06,15976.743723299815,0.0
38,1900-01-01 21:47:10.600,21.801945,39.081669,0.0,-60,190,15976,-2,1,0,-0.03,0.1,-0.05,16482.77367435469,0.0
39,1900-01-01 21:47:10.700,21.801945,39.081669,0.0,-70,-162,15940,-1,1,0,-0.03,0.1,-0.06,16558.632552236915,0.0
40,1900-01-01 21:47:10.800,21.801945,39.081669,0.0,12,-148,16970,0,1,0,-0.04,0.1,-0.06,15976.112668606214,0.0
41,1900-01-01 21:47:10.900,21.801945,39.081669,0.0,-28,302,16558,-2,0,0,-0.04,0.11,-0.06,16556.770216440163,0.0
42,1900-01-01 21:47:11.000,21.801945,39.081669,0.0,-82,0,15920,0,2,0,-0.04,0.1,-0.06,16558.023674339882,0.0
43,1900-01-01 21:47:11.100,21.801945,39.081669,0.0,-60,-224,16556,2,-1,1,-0.04,0.1,-0.06,16556.4441834592,0.0
44,1900-01-01 21:47:11.200,21.801945,39.081669,0.0,28,118,16790,-2,-2,1,-0.05,0.11,-0.07,15958.112795691099,0.0
45,1900-01-01 21:47:11.300,21.801945,39.081669,0.0,10,150,15958,-2,2,1,-0.05,0.1,-0.06,16556.36844238494,0.0
46,1900-01-01 21:47:11.400,21.801945,39.081669,0.0,-194,-250,15862,0,-1,0,-0.05,0.11,-0.06,16494.4458530743,0.0
47,1900-01-01 21:47:11.500,21.801945,39.081669,0.0,76,-110,16856,-1,0,1,-0.05,0.11,-0.08,16410.54465884664,0.0
48,1900-01-01 21:47:11.600,21.801945,39.081669,0.0,292,312,16494,-4,1,-1,-0.05,0.11,-0.08,16495.135525360198,0.0
49,1900-01-01 21:47:11.700,21.801945,39.081669,0.0,98,-178,16410,2,3,0,-0.05,0.09,-0.08,16552.539986358588,0.0
50,1900-01-01 21:47:11.800,21.801945,39.081669,0.0,-134,-286,16552,-2,-7,2,-0.05,0.1,-0.08,16494.11664806576,0.0
51,1900-01-01 21:47:11.900,21.801945,39.081669,0.0,62,384,16632,-3,-2,0,-0.05,0.13,-0.1,16534.970214669273,0.0
52,1900-01-01 21:47:12.000,21.801945,39.081669,0.0,-202,-2,16140,0,0,0,-0.06,0.13,-0.08,16552.1238516391,0.0
53,1900-01-01 21:47:12.100,21.801945,39.081669,0.0,20,-292,16534,0,-2,-1,-0.06,0.14,-0.1,16534.016450941373,0.0
54,1900-01-01 21:47:12.200,21.801945,39.081669,0.0,-64,236,16602,-2,-5,1,-0.06,0.15,-0.1,16396.012320073438,0.0
55,1900-01-01 21:47:12.300,21.801945,39.081669,0.0,100,12,15902,-2,1,1,-0.06,0.14,-0.08,16396.309340824235,0.0
56,1900-01-01 21:47:12.400,21.801945,39.081669,0.0,388,-292,16396,-2,-8,1,-0.06,0.09,-0.09,16359.353165696986,0.0
57,1900-01-01 21:47:12.500,21.801945,39.081669,0.0,682,218,16356,-2,-1,-1,-0.06,-0.04,-0.09,16360.605856752372,0.0
58,1900-01-01 21:47:12.600,21.801945,39.081669,0.0,328,46,15720,-1,0,-1,-0.06,-0.21,-0.08,16365.108860010678,0.0
59,1900-01-01 21:47:12.700,21.801945,39.081669,0.0,568,-230,16638,1,-4,1,-0.06,-0.31,-0.08,16137.237557896953,0.0
60,1900-01-01 21:47:12.800,21.801945,39.081669,0.0,544,232,16128,4,-1,0,-0.06,-0.41,-0.07,16137.237557896953,0.0
61,1900-01-01 21:47:12.900,21.801945,39.081669,0.0,352,-56,15644,4,1,0,-0.06,-0.51,-0.03,16137.269161788186,0.0
62,1900-01-01 21:47:13.000,21.801945,39.081669,0.0,694,94,17082,3,4,2,-0.07,-0.62,0.01,16136.91036103256,0.0
63,1900-01-01 21:47:13.100,21.801945,39.081669,0.0,472,-232,15796,8,2,3,-0.09,-0.73,0.04,16048.948376762884,0.0
64,1900-01-01 21:47:13.200,21.801945,39.081669,0.0,536,14,17208,12,2,-1,-0.1,-0.82,0.08,16718.928314936937,0.0
65,1900-01-01 21:47:13.300,21.801945,39.081669,0.0,184,210,16042,11,11,-4,-0.08,-0.87,0.15,16249.074065927573,0.0
66,1900-01-01 21:47:13.400,21.801945,39.081669,0.0,386,364,16712,0,7,7,-0.09,-0.94,0.26,16445.013590751452,0.0
67,1900-01-01 21:47:13.500,21.801945,39.081669,0.0,304,126,16244,0,15,9,-0.14,-1.0,0.3,16359.442900050111,0.0
68,1900-01-01 21:47:13.600,21.801945,39.081669,0.0,568,-196,16440,-2,6,2,-0.18,-1.11,0.27,16359.055473956923,0.0
69,1900-01-01 21:47:13.700,21.801945,39.081669,0.0,366,336,16354,0,6,2,-0.19,-1.17,0.24,16358.580256244733,0.0
70,1900-01-01 21:47:13.800,21.801945,39.081669,0.0,490,128,16056,3,7,-1,-0.19,-1.25,0.32,16358.095488167319,0.0
71,1900-01-01 21:47:13.900,21.801945,39.081669,0.0,224,-4,16480,-6,-5,1,-0.18,-1.25,0.3,16358.595783257193,0.0
72,1900-01-01 21:47:14.000,21.801945,39.081669,0.0,88,-148,15810,3,11,15,-0.23,-1.22,0.24,16487.496959817763,0.0
73,1900-01-01 21:47:14.100,21.801945,39.081669,0.0,884,380,16754,1,14,9,-0.32,-1.33,0.27,16494.606754936598,0.0
74,1900-01-01 21:47:14.200,21.801945,39.081669,0.0,694,84,16638,13,24,0,-0.32,-1.57,0.35,16335.953476917104,0.0
75,1900-01-01 21:47:14.300,21.801945,39.081669,0.0,1126,-150,16312,16,29,7,-0.36,-1.83,0.39,16616.21063901153,0.0
76,1900-01-01 21:47:14.400,21.801945,39.081669,0.0,998,24,16102,16,22,10,-0.4,-2.13,0.44,16528.978310833372,0.0
77,1900-01-01 21:47:14.500,21.801945,39.081669,0.0,1046,244,16586,16,19,22,-0.49,-2.39,0.59,16528.78229029592,0.0
78,1900-01-01 21:47:14.600,21.801945,39.081669,0.0,1008,498,16498,4,-2,18,-0.63,-2.63,0.69,16528.78229029592,0.0
79,1900-01-01 21:47:14.700,21.801945,39.081669,0.0,644,-22,17458,26,-7,15,-0.71,-2.63,0.72,16529.130890642737,0.0
80,1900-01-01 21:47:14.800,21.801945,39.081669,0.0,1074,-84,15976,28,1,35,-0.85,-2.63,0.71,16008.146051307753,0.0
81,1900-01-01 21:47:14.900,21.801945,39.081669,0.0,1000,110,15868,40,0,23,-1.04,-2.69,0.89,16012.437415958882,0.0
82,1900-01-01 21:47:15.000,21.801945,39.081669,0.0,1248,586,15862,43,7,29,-1.15,-2.79,1.15,16031.32945204483,0.0
83,1900-01-01 21:47:15.100,21.801945,39.081669,0.0,1382,1120,16542,16,13,63,-1.45,-3.01,1.42,16113.04788052217,0.0
84,1900-01-01 21:47:15.200,21.801945,39.081669,0.0,1646,462,16058,0,-11,43,-1.79,-3.21,1.56,16113.455371210732,0.0
85,1900-01-01 21:47:15.300,21.801945,39.081669,0.0,76,160,17884,4,7,43,-2.01,-3.21,1.56,16447.580733955983,0.0
86,1900-01-01 21:47:15.400,21.801945,39.081669,0.0,1156,476,16036,-37,9,69,-2.38,-3.17,1.47,16110.171445394366,0.0
87,1900-01-01 21:47:15.500,21.801945,39.081669,0.0,974,750,16400,-21,4,62,-2.76,-3.25,1.4,16142.206168922512,0.0
88,1900-01-01 21:47:15.600,21.801945,39.081669,0.0,1210,-134,16062,-11,-14,52,-3.07,-3.25,1.24,16148.430140419223,0.0
89,1900-01-01 21:47:15.700,21.801945,39.081669,0.0,380,-272,16112,-16,-12,71,-3.43,-3.14,1.08,16133.663812042198,0.0
90,1900-01-01 21:47:15.800,21.801945,39.081669,0.0,408,590,17390,5,6,90,-3.93,-2.98,0.94,16123.42903975454,0.0
91,1900-01-01 21:47:15.900,21.801945,39.081669,0.0,592,762,15508,-52,40,81,-4.47,-2.98,1.02,16124.872836707891,0.0
92,1900-01-01 21:47:16.000,21.801945,39.081669,0.0,1162,-254,17116,-38,25,71,-4.94,-3.24,0.76,15997.306398265928,0.0
93,1900-01-01 21:47:16.100,21.801945,39.081669,0.0,1110,-1086,15964,-13,-20,72,-5.39,-3.33,0.28,16004.559100456345,0.0
94,1900-01-01 21:47:16.200,21.801945,39.081669,0.0,1000,-974,15846,54,-30,72,-5.82,-3.17,0.08,16472.99790566368,0.0
95,1900-01-01 21:47:16.300,21.801945,39.081669,0.0,1352,-126,16430,98,-47,76,-6.25,-3.07,0.36,16467.934782479555,0.0
96,1900-01-01 21:47:16.400,21.801945,39.081669,0.0,1570,610,16570,109,-69,77,-6.68,-2.87,0.99,16611.35154043764,0.0
97,1900-01-01 21:47:16.500,21.801945,39.081669,0.0,-246,1306,17372,73,-60,90,-7.16,-2.44,1.71,16875.5048517074,0.0
98,1900-01-01 21:47:16.600,21.801945,39.081669,0.0,-346,3520,18108,6,-24,94,-7.71,-1.91,2.31,16875.5048517074,0.0
99,1900-01-01 21:47:16.700,21.801945,39.081669,0.0,312,2446,16822,-145,36,70,-8.24,-1.7,2.52,16875.5048517074,0.0
100,1900-01-01 21:47:16.800,21.801943,39.081669,0.0,454,-1050,16390,-105,58,64,-8.68,-1.95,1.7,16759.9859188485,0.000222
101,1900-01-01 21:47:16.900,21.801943,39.081669,0.0,1892,-2030,14860,-55,24,76,-9.12,-2.28,0.72,16778.2069363803,0.0
102,1900-01-01 21:47:17.000,21.801943,39.081669,0.0,1296,-574,16744,32,19,76,-9.58,-2.58,0.25,16803.887288362774,0.0
103,1900-01-01 21:47:17.100,21.801943,39.081669,0.0,904,2082,16998,11,14,81,-10.08,-2.76,0.68,17056.995515037226,0.0
104,1900-01-01 21:47:17.200,21.801943,39.081669,0.0,1342,1408,17996,-80,11,72,-10.51,-2.86,0.88,17042.453579223857,0.0
105,1900-01-01 21:47:17.300,21.801943,39.081669,0.0,1028,-1070,17254,-47,33,71,-10.97,-3.03,0.38,17036.546363626636,0.0
106,1900-01-01 21:47:17.400,21.801943,39.081669,0.0,1088,-1638,15992,15,47,84,-11.49,-3.37,-0.17,16052.202091924959,0.0
107,1900-01-01 21:47:17.500,21.801943,39.081669,0.0,1780,-358,15514,55,31,83,-11.95,-3.68,-0.1,15585.16910399114,0.0
108,1900-01-01 21:47:17.600,21.801943,39.081669,0.0,1722,80,14676,119,28,52,-12.34,-3.97,0.43,15489.35905710756,0.0
109,1900-01-01 21:47:17.700,21.801943,39.081669,0.0,1444,2036,14738,48,20,41,-12.55,-4.28,1.32,15497.612332227181,0.0
110,1900-01-01 21:47:17.800,21.801943,39.081669,0.0,1462,2276,15420,-7,2,41,-12.8,-4.48,2.02,15495.924625526544,0.0
111,1900-01-01 21:47:17.900,21.801943,39.081669,0.0,804,512,18654,-61,-5,22,-13.02,-4.43,2.05,17140.099649651984,0.0
112,1900-01-01 21:47:18.000,21.801943,39.081669,0.0,458,-792,17182,-21,26,20,-13.18,-4.33,1.62,17208.418986066095,0.0
113,1900-01-01 21:47:18.100,21.801943,39.081669,0.0,1414,48,17074,-54,9,55,-13.43,-4.24,1.38,17199.76244021992,0.0
114,1900-01-01 21:47:18.200,21.801943,39.081669,0.0,210,1664,17346,-56,-36,43,-13.79,-4.04,1.21,17094.199952030514,0.0
115,1900-01-01 21:47:18.300,21.801943,39.081669,0.0,780,-286,16216,-54,-29,12,-13.96,-3.73,0.84,17094.199952030514,0.0
116,1900-01-01 21:47:18.400,21.801941,39.081669,7.27,1692,-772,16522,-16,-30,30,-14.11,-3.45,0.33,16527.234614417503,0.000222
117,1900-01-01 21:47:18.500,21.801939,39.081665,8.24,302,-912,17932,22,-51,20,-14.28,-3.1,0.05,16528.661893813423,0.000469
118,1900-01-01 21:47:18.600,21.801937,39.081665,8.23,-296,-146,15566,56,-40,2,-14.29,-2.62,0.21,16525.404805934406,0.000222
119,1900-01-01 21:47:18.700,21.801935,39.081661,8.28,372,390,18184,71,-44,15,-14.33,-2.17,0.56,16019.44693177639,0.000469
120,1900-01-01 21:47:18.800,21.801933,39.081661,8.47,-232,1540,15920,13,-17,14,-14.41,-1.85,1.06,16023.074112042295,0.000222
121,1900-01-01 21:47:18.900,21.801931,39.081661,8.52,294,1512,16012,-20,18,15,-14.51,-1.81,1.34,16024.695067301593,0.000222
122,1900-01-01 21:47:19.000,21.801929,39.081657,8.53,836,518,17886,-46,9,7,-14.59,-1.95,1.27,16031.683380107032,0.000469
123,1900-01-01 21:47:19.100,21.801928,39.081657,8.5,602,-1330,15642,-17,5,-8,-14.59,-2.01,0.85,16042.174540878179,0.000111
124,1900-01-01 21:47:19.200,21.801926,39.081657,8.53,852,-12,16128,39,13,3,-14.57,-2.05,0.72,16158.793643091058,0.000222
125,1900-01-01 21:47:19.300,21.801924,39.081654,8.49,1002,1176,15944,28,-1,-2,-14.58,-2.16,1.0,16174.51155367605,0.000381
126,1900-01-01 21:47:19.400,21.801922,39.081654,8.52,1346,1912,16388,-9,6,-24,-14.5,-2.36,1.5,16199.460978686915,0.000222
127,1900-01-01 21:47:19.500,21.80192,39.081654,8.54,1574,706,17186,-34,7,-28,-14.32,-2.64,1.6,16124.544520698872,0.000222
128,1900-01-01 21:47:19.600,21.801918,39.08165,8.54,1856,-192,15612,-48,21,-20,-14.2,-3.07,1.36,16507.868305750442,0.000469
129,1900-01-01 21:47:19.700,21.801918,39.08165,8.57,2410,16,16032,-38,7,-30,-14.06,-3.52,1.06,17098.407528188116,0.0
130,1900-01-01 21:47:19.800,21.801916,39.08165,8.58,2322,878,16940,-18,0,-38,-13.85,-3.83,0.94,16199.293441381942,0.000222
131,1900-01-01 21:47:19.900,21.801914,39.081646,8.67,2342,-460,17022,1,-5,-34,-13.64,-4.13,0.84,16295.186283071453,0.000469
132,1900-01-01 21:47:20.000,21.801912,39.081646,8.78,2282,-20,15506,-16,5,-36,-13.42,-4.44,0.86,16727.057601383454,0.000222
133,1900-01-01 21:47:20.100,21.80191,39.081642,8.85,2770,848,16126,46,-21,-44,-13.17,-4.74,0.91,16303.601319953821,0.000469
134,1900-01-01 21:47:20.200,21.801908,39.081642,9.03,2638,524,16554,10,-4,-39,-12.88,-4.94,1.11,16310.689623679313,0.000222
135,1900-01-01 21:47:20.300,21.801907,39.081642,9.09,2096,1372,13194,-18,33,-30,-12.68,-5.28,1.41,16786.272844202194,0.000111
136,1900-01-01 21:47:20.400,21.801905,39.081638,9.15,2296,942,20180,8,27,-40,-12.49,-5.81,1.47,16786.272844202194,0.000469
137,1900-01-01 21:47:20.500,21.801903,39.081638,9.38,3588,886,17364,-28,11,-50,-12.21,-6.28,1.35,17649.13924246732,0.000222
138,1900-01-01 21:47:20.600,21.801901,39.081635,9.47,3016,-516,11688,-6,6,-32,-11.97,-6.67,1.3,18095.127852546386,0.000381
139,1900-01-01 21:47:20.700,21.801899,39.081635,9.66,3516,1274,17820,-2,15,-39,-11.74,-7.01,1.41,17646.238919384494,0.000222
140,1900-01-01 21:47:20.800,21.801895,39.081631,10.02,2756,616,18436,29,4,-53,-11.49,-7.18,1.4,17065.283238200296,0.000607
141,1900-01-01 21:47:20.900,21.801893,39.081631,10.28,1868,1006,16830,4,-7,-50,-11.13,-7.3,1.54,17034.25478264312,0.000222
142,1900-01-01 21:47:21.000,21.801891,39.081627,10.75,2346,452,15616,11,-11,-49,-10.84,-7.41,1.6,15870.151858126626,0.000469
143,1900-01-01 21:47:21.100,21.801889,39.081627,11.03,2430,1048,15668,-5,-9,-51,-10.52,-7.53,1.71,15835.920939433867,0.000222
144,1900-01-01 21:47:21.200,21.801886,39.081623,11.47,3248,686,15576,2,9,-55,-10.18,-7.62,1.77,15838.644512710045,0.000531
145,1900-01-01 21:47:21.300,21.801884,39.081623,11.87,2786,1208,15000,-19,8,-56,-9.87,-7.58,1.86,15803.582505242284,0.000222
146,1900-01-01 21:47:21.400,21.801882,39.081619,12.32,2304,1112,15882,-9,-4,-57,-9.54,-7.69,1.87,15784.699426976746,0.000469
147,1900-01-01 21:47:21.500,21.801878,39.081615,12.71,1910,1222,15086,-18,-10,-60,-9.15,-7.66,1.87,16086.730059275564,0.000607
148,1900-01-01 21:47:21.600,21.801876,39.081615,13.19,2122,638,16300,-15,-1,-59,-8.82,-7.72,1.82,16475.115416894656,0.000222
149,1900-01-01 21:47:21.700,21.801872,39.081612,13.74,2558,746,18244,-12,2,-62,-8.44,-7.79,1.75,16454.46443978047,0.000542
150,1900-01-01 21:47:21.800,21.80187,39.081608,14.2,1932,1302,19272,3,-1,-62,-8.07,-7.85,1.74,16468.794369959203,0.000469
151,1900-01-01 21:47:21.900,21.801867,39.081604,14.73,2252,678,16186,-11,25,-58,-7.73,-7.91,1.69,16360.966475119983,0.000531
152,1900-01-01 21:47:22.000,21.801863,39.0816,15.35,2504,-156,14228,-11,28,-60,-7.39,-8.12,1.63,16360.966475119983,0.000607
153,1900-01-01 21:47:22.100,21.801861,39.081596,15.91,2288,520,14564,-25,-2,-51,-7.05,-8.22,1.58,14786.158933272698,0.000469
154,1900-01-01 21:47:22.200,21.801857,39.081596,16.49,2516,860,17408,7,26,-43,-6.77,-8.26,1.41,14777.13422825955,0.000445
155,1900-01-01 21:47:22.300,21.801853,39.081593,17.06,2500,-284,13356,-28,-16,-35,-6.52,-8.32,1.28,15166.505859953373,0.000542
156,1900-01-01 21:47:22.400,21.801849,39.081589,17.74,1960,60,14950,-4,-28,-30,-6.32,-8.35,1.29,17392.805064163746,0.000607
157,1900-01-01 21:47:22.500,21.801846,39.081581,18.58,5712,1264,17212,-10,14,-29,-6.16,-8.27,1.26,17392.805064163746,0.000891
158,1900-01-01 21:47:22.600,21.801842,39.081577,19.41,2410,82,18472,23,3,-39,-5.92,-8.28,1.33,17518.85863862141,0.000607
159,1900-01-01 21:47:22.700,21.801836,39.081573,20.72,4004,2046,19966,25,11,-33,-5.7,-8.2,1.43,18422.396912454144,0.000785
160,1900-01-01 21:47:22.800,21.801832,39.08157,21.31,2364,918,17328,14,14,-42,-5.46,-8.2,1.57,18317.94682817919,0.000542
161,1900-01-01 21:47:22.900,21.801826,39.081562,22.06,3224,1422,18094,-1,23,-42,-5.19,-8.25,1.69,17568.63580361321,0.001062
162,1900-01-01 21:47:23.000,21.801823,39.081558,22.98,2704,792,16300,14,15,-42,-4.94,-8.3,1.73,17512.58987128974,0.000531
163,1900-01-01 21:47:23.100,21.801817,39.081554,23.93,1708,1042,13214,-15,-11,-44,-4.67,-8.35,1.83,16770.182229182843,0.000785
164,1900-01-01 21:47:23.200,21.801813,39.081547,24.69,2322,828,18166,1,-11,-48,-4.4,-8.39,1.94,16485.365267412184,0.000849
165,1900-01-01 21:47:23.300,21.801807,39.081543,25.41,1736,784,16588,1,-15,-50,-4.07,-8.33,2.04,14636.393544859335,0.000785
166,1900-01-01 21:47:23.400,21.801802,39.081535,25.95,4304,1616,14456,-11,-16,-57,-3.78,-8.28,2.07,14636.393544859335,0.000996
167,1900-01-01 21:47:23.500,21.801798,39.081532,26.16,2136,428,13560,-33,-21,-53,-3.45,-8.24,2.14,14642.645116234977,0.000542
168,1900-01-01 21:47:23.600,21.801792,39.081528,26.94,2112,932,12642,-17,-16,-49,-3.1,-8.23,2.17,14830.283746442616,0.000785
169,1900-01-01 21:47:23.700,21.801788,39.08152,27.15,8748,2644,18514,-13,23,-43,-2.79,-8.28,2.19,15816.632258480311,0.000938
170,1900-01-01 21:47:23.800,21.801783,39.081516,27.33,3088,1194,15986,-12,-12,-60,-2.47,-8.16,2.17,16208.763308778372,0.000693
171,1900-01-01 21:47:23.900,21.801777,39.081509,27.49,2116,776,15644,5,8,-51,-2.15,-8.04,2.17,16208.763308778372,0.000984
172,1900-01-01 21:47:24.000,21.801773,39.081505,27.98,2406,1176,16912,-12,10,-50,-1.86,-7.98,2.23,15846.94759251762,0.000607
173,1900-01-01 21:47:24.100,21.801767,39.081497,28.48,-3164,-2314,14304,-18,-8,-44,-1.58,-7.97,2.25,15798.236990246729,0.001062
174,1900-01-01 21:47:24.200,21.801762,39.08149,29.35,3572,-226,11902,-32,-14,-39,-1.32,-8.11,2.06,16092.263109954423,0.000912
175,1900-01-01 21:47:24.300,21.801758,39.081486,29.78,1884,610,15980,-3,-18,-38,-1.07,-8.03,1.95,14572.070408833468,0.000607
176,1900-01-01 21:47:24.400,21.801752,39.081478,30.1,1150,-518,16310,-29,24,-25,-0.9,-8.0,1.85,16146.593077178852,0.001062
177,1900-01-01 21:47:24.500,21.801746,39.08147,30.72,2312,82,14448,-6,9,-19,-0.77,-8.02,1.68,16422.097064626065,0.001062
178,1900-01-01 21:47:24.600,21.801741,39.081467,31.01,2636,346,16388,-4,6,-18,-0.67,-8.05,1.59,16419.346028389802,0.000636
179,1900-01-01 21:47:24.700,21.801735,39.081459,31.37,1206,1056,18268,8,-41,-19,-0.55,-7.9,1.52,16216.721616899022,0.001062
180,1900-01-01 21:47:24.800,21.801731,39.081451,31.82,1890,-296,15626,-8,-28,-19,-0.44,-7.73,1.47,16500.253331388583,0.000938
181,1900-01-01 21:47:24.900,21.801725,39.081444,32.13,704,-176,16106,4,-21,-13,-0.32,-7.64,1.46,17501.561416056567,0.000984
182,1900-01-01 21:47:25.000,21.80172,39.081436,32.47,2842,984,17702,-18,12,-17,-0.22,-7.53,1.44,17537.030307323985,0.000996
183,1900-01-01 21:47:25.100,21.801714,39.081432,32.99,1486,390,17434,-3,-10,-20,-0.11,-7.47,1.43,17784.875709433563,0.000785
184,1900-01-01 21:47:25.200,21.801708,39.081425,33.43,2428,-180,19658,-13,-16,-22,-0.01,-7.26,1.41,17784.875709433563,0.000984
185,1900-01-01 21:47:25.300,21.801702,39.081417,33.69,1670,960,20276,13,-9,-20,0.1,-6.96,1.37,18496.25021457052,0.001062
186,1900-01-01 21:47:25.400,21.801697,39.081409,34.02,1430,4,13498,5,15,-15,0.21,-6.69,1.4,19413.455436887067,0.000996
187,1900-01-01 21:47:25.500,21.801691,39.081402,34.78,1586,998,18424,24,35,-16,0.32,-6.59,1.49,18513.21193094272,0.000984
188,1900-01-01 21:47:25.600,21.801685,39.081394,34.89,2154,774,19326,6,29,-16,0.41,-6.56,1.56,15510.591735971906,0.001062
189,1900-01-01 21:47:25.700,21.80168,39.081387,35.04,1642,404,14874,11,-5,-13,0.5,-6.56,1.54,18547.806770613068,0.000912
190,1900-01-01 21:47:25.800,21.801674,39.081379,35.15,2686,952,15404,20,-10,-19,0.61,-6.54,1.5,18444.56548688529,0.001062
191,1900-01-01 21:47:25.900,21.801668,39.081371,35.43,1916,1272,19274,8,16,-15,0.71,-6.45,1.56,17485.61934848177,0.001062
192,1900-01-01 21:47:26.000,21.801662,39.081364,35.62,2474,538,18302,-2,5,-10,0.78,-6.45,1.51,17485.61934848177,0.000984
193,1900-01-01 21:47:26.100,21.801657,39.081356,35.76,886,-276,17372,24,5,-10,0.84,-6.41,1.41,17420.401373102744,0.000996
194,1900-01-01 21:47:26.200,21.801651,39.081348,36.09,-1024,-384,17026,4,-2,-4,0.89,-6.4,1.45,17415.034424312806,0.001062
195,1900-01-01 21:47:26.300,21.801645,39.081341,36.39,1268,-586,15558,-2,3,-3,0.91,-6.26,1.35,17069.90673671066,0.000984
196,1900-01-01 21:47:26.400,21.80164,39.081329,36.81,1192,162,18908,15,52,-6,0.95,-6.29,1.34,16443.210148873,0.001358
197,1900-01-01 21:47:26.500,21.801634,39.081322,37.35,2120,-90,16394,4,13,-3,0.98,-6.46,1.33,15610.427028111691,0.000984
198,1900-01-01 21:47:26.600,21.801628,39.081314,37.67,1910,266,15306,-28,-1,-3,0.99,-6.49,1.35,15360.783703965108,0.001062
199,1900-01-01 21:47:26.700,21.801622,39.081306,37.98,1268,200,13936,-33,-25,-7,1.01,-6.38,1.21,15426.00842732818,0.001062
200,1900-01-01 21:47:26.800,21.801615,39.081299,38.2,1286,-172,15152,-16,-27,-4,1.06,-6.16,1.04,15402.854021252035,0.001062
201,1900-01-01 21:47:26.900,21.801609,39.081291,38.28,2158,224,19852,-12,49,1,1.07,-6.14,0.96,17175.379821127684,0.001062
202,1900-01-01 21:47:27.000,21.801603,39.08128,38.41,1710,276,17126,-13,2,-1,1.05,-6.28,0.87,17182.48189290476,0.001317
203,1900-01-01 21:47:27.100,21.801598,39.081272,38.7,1002,12,18644,22,-5,-4,1.07,-6.28,0.8,18697.234447906994,0.000996
204,1900-01-01 21:47:27.200,21.80159,39.081264,39.1,1392,-28,14448,-13,-4,3,1.1,-6.09,0.8,18183.46017676504,0.001214
205,1900-01-01 21:47:27.300,21.801584,39.081257,39.4,1344,372,19744,40,30,-4,1.1,-6.03,0.77,18468.537137521205,0.000984
206,1900-01-01 21:47:27.400,21.801579,39.081245,39.55,1486,1122,18128,7,30,-2,1.11,-6.13,0.82,18188.8252506862,0.001358
207,1900-01-01 21:47:27.500,21.801571,39.081238,39.75,1674,-102,18416,-4,-2,-4,1.12,-6.18,0.78,18188.90936807372,0.001146
208,1900-01-01 21:47:27.600,21.801565,39.08123,40.07,1922,-256,13888,-2,-17,-1,1.12,-6.08,0.65,17141.28279913729,0.001062
209,1900-01-01 21:47:27.700,21.801559,39.081219,40.77,1394,62,17074,-1,-36,-1,1.12,-6.06,0.59,17119.369264082132,0.001317
210,1900-01-01 21:47:27.800,21.801552,39.081211,42.1,1516,604,15176,-8,3,1,1.11,-6.02,0.51,16503.09716386594,0.001135
211,1900-01-01 21:47:27.900,21.801544,39.0812,42.2,688,180,17052,8,1,-1,1.11,-5.97,0.39,16503.09716386594,0.001443
212,1900-01-01 21:47:28.000,21.801538,39.081192,42.24,1224,-116,16444,-21,-15,-1,1.1,-5.92,0.32,15225.721920487054,0.001062
213,1900-01-01 21:47:28.100,21.801533,39.081184,42.27,1688,-482,13158,-12,-13,2,1.09,-5.96,0.18,14652.551723164126,0.000996
214,1900-01-01 21:47:28.200,21.801525,39.081173,42.36,1110,-434,12920,3,-48,12,1.07,-5.86,0.04,14661.62842251842,0.001443
215,1900-01-01 21:47:28.300,21.801519,39.081165,42.41,902,-742,14604,-5,-9,17,0.99,-5.63,-0.01,14695.841724787322,0.001062
216,1900-01-01 21:47:28.400,21.801512,39.081154,42.68,1568,-342,17800,34,33,21,0.88,-5.61,-0.13,15261.87681774427,0.001377
217,1900-01-01 21:47:28.500,21.801506,39.081146,42.83,2124,-526,17188,31,31,16,0.78,-5.81,-0.1,17267.38671600309,0.001062
218,1900-01-01 21:47:28.600,21.801498,39.081135,42.96,1758,-784,15172,-15,-26,21,0.66,-5.81,-0.11,17285.675688268595,0.001443
219,1900-01-01 21:47:28.700,21.801493,39.081127,43.07,1548,868,20056,20,9,15,0.56,-5.78,-0.16,17285.675688268595,0.000996
220,1900-01-01 21:47:28.800,21.801485,39.081116,43.34,2426,-1242,13464,-15,-25,20,0.43,-5.84,-0.28,15266.747787266284,0.001443
221,1900-01-01 21:47:28.900,21.801477,39.081108,43.57,1372,-410,18410,9,-8,18,0.32,-5.74,-0.37,15237.450442905467,0.001214
222,1900-01-01 21:47:29.000,21.801472,39.081097,44.07,1648,-374,15154,-1,-10,22,0.21,-5.65,-0.44,13569.638020227363,0.001264
223,1900-01-01 21:47:29.100,21.801464,39.081089,44.26,1356,-230,10462,2,25,19,0.1,-5.67,-0.39,13978.866763797414,0.001214
224,1900-01-01 21:47:29.200,21.801456,39.081078,44.47,1702,-318,12168,-5,72,9,0.02,-5.76,-0.35,13977.480602740967,0.001443
225,1900-01-01 21:47:29.300,21.801451,39.08107,44.84,1634,-1196,13878,-11,-8,10,-0.05,-5.69,-0.38,13977.480602740967,0.000996
226,1900-01-01 21:47:29.400,21.801443,39.081059,45.19,1060,498,14216,2,6,13,-0.12,-5.59,-0.4,14313.131593051186,0.001443
227,1900-01-01 21:47:29.500,21.801435,39.081051,45.59,1862,-452,15568,6,-12,9,-0.19,-5.51,-0.41,14816.878483675298,0.001214
228,1900-01-01 21:47:29.600,21.801428,39.081039,46.35,348,-246,14772,-8,3,7,-0.22,-5.39,-0.42,15587.140982232759,0.001463
229,1900-01-01 21:47:29.700,21.80142,39.081028,46.67,650,-558,16994,4,0,8,-0.26,-5.18,-0.45,15588.118167373508,0.001443
230,1900-01-01 21:47:29.800,21.801413,39.081017,47.01,732,766,18466,4,-22,7,-0.29,-4.91,-0.42,16907.371883293985,0.001377
231,1900-01-01 21:47:29.900,21.801405,39.081009,47.32,-532,-880,15232,-25,-23,9,-0.34,-4.53,-0.41,16999.212334693628,0.001214
232,1900-01-01 21:47:30.000,21.801397,39.080997,47.24,-226,-44,16902,7,-10,4,-0.37,-4.01,-0.48,17212.593529157657,0.001525
233,1900-01-01 21:47:30.100,21.80139,39.080986,47.53,28,-420,17212,10,15,8,-0.42,-3.64,-0.49,16904.534184649987,0.001377
234,1900-01-01 21:47:30.200,21.801382,39.080978,47.48,-136,66,17310,19,-10,7,-0.46,-3.31,-0.49,17121.214910163355,0.001214
235,1900-01-01 21:47:30.300,21.801374,39.080967,47.81,-286,-186,15288,-8,-10,9,-0.5,-2.93,-0.44,17121.550513899143,0.001443
236,1900-01-01 21:47:30.400,21.801367,39.080956,47.86,144,-152,17120,-19,5,6,-0.56,-2.64,-0.41,15291.80617193404,0.001377
237,1900-01-01 21:47:30.500,21.801359,39.080948,47.88,-748,-1126,15166,25,-4,9,-0.6,-2.33,-0.58,15295.009512909759,0.001214
238,1900-01-01 21:47:30.600,21.801352,39.080936,47.89,-704,-442,14404,-25,5,11,-0.65,-2.0,-0.51,15760.43768427768,0.001463
239,1900-01-01 21:47:30.700,21.801344,39.080925,47.91,-424,232,15754,45,4,0,-0.69,-1.7,-0.54,15761.412246369295,0.001443
240,1900-01-01 21:47:30.800,21.801336,39.080917,47.92,582,418,16762,25,8,-3,-0.66,-1.39,-0.35,16228.9255343661,0.001214
241,1900-01-01 21:47:30.900,21.801329,39.080906,47.9,278,1370,16748,28,-20,-6,-0.63,-1.16,-0.11,16758.580011444883,0.001377
242,1900-01-01 21:47:31.000,21.801321,39.080898,47.79,-732,598,16218,1,-34,-3,-0.62,-0.77,0.05,16763.727628424414,0.001214
243,1900-01-01 21:47:31.100,21.801313,39.080887,47.74,-1110,-1170,17238,9,27,-2,-0.59,-0.39,0.02,16234.241097137865,0.001443
244,1900-01-01 21:47:31.200,21.801306,39.080875,47.65,-494,532,15112,26,73,5,-0.59,-0.5,0.05,15128.710982763865,0.001463
245,1900-01-01 21:47:31.300,21.801298,39.080868,47.62,1664,-994,14662,3,-10,3,-0.61,-0.8,0.13,14679.223276454379,0.001146
246,1900-01-01 21:47:31.400,21.801291,39.080856,47.53,-694,-154,14636,12,-73,-1,-0.61,-0.52,0.15,14678.905953782796,0.001463
247,1900-01-01 21:47:31.500,21.801283,39.080845,47.41,-1134,-120,13986,13,-14,0,-0.59,-0.01,0.23,14679.223276454379,0.001443
248,1900-01-01 21:47:31.600,21.801275,39.080837,47.29,-1238,644,17498,-34,46,3,-0.61,0.32,0.38,15038.501255111827,0.001214
249,1900-01-01 21:47:31.700,21.801268,39.080826,47.06,-174,-278,15820,-3,57,4,-0.64,0.14,0.25,15866.151266138868,0.001377
250,1900-01-01 21:47:31.800,21.80126,39.080818,46.81,-192,420,15022,-31,-50,0,-0.63,-0.01,0.34,16467.00725693652,0.001214
251,1900-01-01 21:47:31.900,21.801252,39.080807,46.58,-1198,572,16418,-52,-64,-1,-0.64,0.48,0.18,16424.99875190254,0.001443
252,1900-01-01 21:47:32.000,21.801245,39.080799,46.2,-1292,-178,17630,-36,-22,-6,-0.6,0.99,-0.11,17640.90530556751,0.001135
253,1900-01-01 21:47:32.100,21.801237,39.080788,46.08,-474,72,19786,-10,45,-2,-0.58,1.18,-0.3,18124.472075070214,0.001443
254,1900-01-01 21:47:32.200,21.801231,39.080776,45.91,-616,-6,18884,-3,50,3,-0.59,1.08,-0.37,18125.345127748602,0.001407
255,1900-01-01 21:47:32.300,21.801224,39.080769,45.86,580,-228,18114,-19,13,-3,-0.6,0.9,-0.4,18125.905108435276,0.001062
256,1900-01-01 21:47:32.400,21.801216,39.080757,45.73,-758,-1142,13648,-15,-13,-3,-0.58,0.86,-0.47,15421.994164179936,0.001525
257,1900-01-01 21:47:32.500,21.801208,39.08075,45.41,-882,-436,14344,-14,-41,0,-0.56,1.01,-0.49,15412.60678795122,0.001146
258,1900-01-01 21:47:32.600,21.801201,39.080738,45.05,-300,308,15408,-14,-1,-1,-0.56,1.12,-0.38,14852.054538009212,0.001463
259,1900-01-01 21:47:32.700,21.801193,39.08073,44.87,-172,-144,15706,7,-20,-2,-0.56,1.12,-0.34,15418.121934918014,0.001214
260,1900-01-01 21:47:32.800,21.801188,39.080719,44.77,-774,556,14832,7,-11,2,-0.55,1.17,-0.26,15415.077943364413,0.001264
261,1900-01-01 21:47:32.900,21.80118,39.080711,44.46,-466,358,17812,-3,13,3,-0.55,1.27,-0.18,15335.26315392077,0.001214
262,1900-01-01 21:47:33.000,21.801172,39.0807,44.41,270,486,15324,-26,8,-1,-0.55,1.15,-0.15,15343.793663888993,0.001443
263,1900-01-01 21:47:33.100,21.801167,39.080692,44.26,-1052,-386,15266,-2,-19,-1,-0.54,1.0,-0.24,17492.418243341886,0.000996
264,1900-01-01 21:47:33.200,21.801159,39.080681,43.97,-692,-278,17698,-13,-22,-1,-0.52,0.99,-0.26,15339.711731320116,0.001443
265,1900-01-01 21:47:33.300,21.801151,39.080673,44.03,534,-488,17484,-3,16,0,-0.52,0.96,-0.26,17499.8213705169,0.001214
266,1900-01-01 21:47:33.400,21.801144,39.080666,44.03,-636,238,13764,11,-3,-1,-0.51,0.88,-0.26,17703.003812912655,0.001062
267,1900-01-01 21:47:33.500,21.801138,39.080654,43.92,-316,-712,18734,-13,8,-2,-0.49,0.78,-0.21,17721.614486270715,0.001407
268,1900-01-01 21:47:33.600,21.80113,39.080647,43.86,1652,626,17720,2,-2,-5,-0.47,0.73,-0.25,17915.597003728344,0.001146
269,1900-01-01 21:47:33.700,21.801123,39.080635,43.81,-24,330,17914,-1,14,-2,-0.45,0.64,-0.28,18266.496763200106,0.001463
270,1900-01-01 21:47:33.800,21.801117,39.080627,43.87,102,88,18718,1,22,-2,-0.45,0.47,-0.3,17914.50652404358,0.001062
271,1900-01-01 21:47:33.900,21.801109,39.080616,43.81,602,-92,18266,-2,12,-1,-0.44,0.33,-0.24,17914.218933573407,0.001443
272,1900-01-01 21:47:34.000,21.801102,39.080608,43.76,-10,-16,17158,19,9,-2,-0.43,0.29,-0.24,17462.51963492096,0.001135
273,1900-01-01 21:47:34.100,21.801094,39.080597,43.82,-394,188,14676,13,-3,-9,-0.41,0.17,-0.08,17158.105489826085,0.001443
274,1900-01-01 21:47:34.200,21.801088,39.080589,43.75,456,510,17462,-10,3,-17,-0.34,0.09,0.16,17055.134827963102,0.001062
275,1900-01-01 21:47:34.300,21.801081,39.080582,43.76,58,16,17054,-10,-13,-23,-0.22,0.08,0.21,17058.742157615256,0.001062
276,1900-01-01 21:47:34.400,21.801073,39.08057,43.74,458,404,15504,-7,-16,-23,-0.13,0.08,0.25,17058.88319908428,0.001525
277,1900-01-01 21:47:34.500,21.801067,39.080563,43.82,-60,398,17810,-8,0,-19,-0.01,0.13,0.34,15719.29947548554,0.000984
278,1900-01-01 21:47:34.600,21.80106,39.080551,43.83,-382,666,14542,7,9,-17,0.09,0.11,0.38,15513.033101234587,0.001463
279,1900-01-01 21:47:34.700,21.801052,39.080544,43.87,342,912,15714,2,7,-23,0.2,-0.03,0.51,15722.912452850458,0.001146
280,1900-01-01 21:47:34.800,21.801046,39.080532,43.66,622,404,15248,-5,-10,-25,0.34,-0.14,0.62,15266.369050956419,0.001407
281,1900-01-01 21:47:34.900,21.801039,39.080524,43.67,426,344,16152,4,-11,-24,0.49,-0.08,0.73,15726.721972490008,0.001135
282,1900-01-01 21:47:35.000,21.801031,39.080513,43.69,250,1230,13564,-24,21,-18,0.62,-0.12,0.83,15279.388076752288,0.001443
283,1900-01-01 21:47:35.100,21.801025,39.080505,43.56,56,532,16668,-3,24,-17,0.74,-0.26,0.83,16162.692473718604,0.001062
284,1900-01-01 21:47:35.200,21.801018,39.080498,43.58,-392,-282,15272,13,3,-17,0.86,-0.35,0.77,16678.361670140144,0.001062
285,1900-01-01 21:47:35.300,21.80101,39.080486,43.57,796,832,18514,-9,8,-13,0.95,-0.42,0.83,17000.41834779368,0.001525
286,1900-01-01 21:47:35.400,21.801004,39.080479,43.64,492,48,17714,14,-14,-18,1.04,-0.48,0.77,17720.033747146193,0.000984
287,1900-01-01 21:47:35.500,21.800997,39.080467,43.68,-418,672,16992,-10,-27,-15,1.14,-0.33,0.8,17722.8749360819,0.001463
288,1900-01-01 21:47:35.600,21.800989,39.08046,43.65,430,170,17924,5,11,-11,1.21,-0.29,0.75,16997.417450895296,0.001146
289,1900-01-01 21:47:35.700,21.800983,39.080448,43.75,394,360,13590,-21,-1,-10,1.28,-0.4,0.7,15015.098800873739,0.001407
290,1900-01-01 21:47:35.800,21.800976,39.080441,43.73,64,-772,15014,-15,-22,-3,1.32,-0.38,0.58,15025.040166335662,0.001062
291,1900-01-01 21:47:35.900,21.800968,39.080429,43.72,-142,-516,14800,1,-30,3,1.33,-0.27,0.41,14809.130696972054,0.001525
292,1900-01-01 21:47:36.000,21.800962,39.080421,43.7,444,-420,16326,-18,-19,5,1.32,-0.16,0.31,14809.130696972054,0.001062
293,1900-01-01 21:47:36.100,21.800955,39.08041,43.71,-234,-720,14724,14,11,8,1.27,-0.21,0.22,14806.822751691194,0.001377
294,1900-01-01 21:47:36.200,21.800949,39.080402,43.65,160,52,14392,7,12,7,1.25,-0.38,0.22,14728.216864237163,0.001062
295,1900-01-01 21:47:36.300,21.800941,39.080395,43.67,604,252,18280,-14,-17,6,1.2,-0.42,0.23,14724.874193010954,0.001146
296,1900-01-01 21:47:36.400,21.800934,39.080383,43.65,80,-314,13208,-19,-11,14,1.14,-0.37,0.07,16300.789674123153,0.001463
297,1900-01-01 21:47:36.500,21.800928,39.080376,43.72,804,-12,16300,-16,1,19,1.05,-0.36,-0.11,16314.20889899354,0.000984
298,1900-01-01 21:47:36.600,21.80092,39.080364,43.61,-498,-334,19240,7,-8,18,0.93,-0.37,-0.29,16231.134895625752,0.001525
299,1900-01-01 21:47:36.700,21.800913,39.080357,43.61,724,-342,15534,0,35,21,0.82,-0.37,-0.4,16309.091207053812,0.001062
300,1900-01-01 21:47:36.800,21.800907,39.080345,43.56,430,-348,16222,10,35,17,0.71,-0.45,-0.46,16803.394180938565,0.001407
301,1900-01-01 21:47:36.900,21.8009,39.080338,43.44,164,308,16798,10,13,9,0.63,-0.56,-0.43,16507.618362441022,0.001062
302,1900-01-01 21:47:37.000,21.800894,39.080326,43.47,264,-258,16828,5,-12,1,0.61,-0.59,-0.33,16503.10334452281,0.001407
303,1900-01-01 21:47:37.100,21.800886,39.080318,43.44,582,362,16500,-1,25,-3,0.61,-0.61,-0.21,16505.937961836644,0.001214
304,1900-01-01 21:47:37.200,21.80088,39.080307,43.38,318,36,15828,20,4,-4,0.64,-0.71,-0.14,15838.15759487195,0.001317
305,1900-01-01 21:47:37.300,21.800873,39.080299,43.44,1004,480,15532,-14,-12,-3,0.66,-0.9,0.04,15841.808735116076,0.001135
306,1900-01-01 21:47:37.400,21.800865,39.080292,43.41,566,-354,15440,6,-6,-2,0.69,-0.92,0.01,15542.351044806574,0.001146
307,1900-01-01 21:47:37.500,21.800859,39.08028,43.52,184,342,19120,4,-11,0,0.7,-0.84,0.04,15542.334573673286,0.001407
308,1900-01-01 21:47:37.600,21.800852,39.080273,43.57,810,-28,14042,-6,-15,3,0.69,-0.92,0.02,15913.863892845131,0.001062
309,1900-01-01 21:47:37.700,21.800846,39.080261,43.61,522,-324,15902,-4,-2,2,0.66,-0.9,-0.03,15906.956842840807,0.001407
310,1900-01-01 21:47:37.800,21.800838,39.080254,43.57,336,-514,16512,0,-11,5,0.64,-0.95,-0.09,15911.390008418497,0.001146
311,1900-01-01 21:47:37.900,21.800833,39.080242,43.63,366,-154,13480,-10,-4,9,0.59,-1.03,-0.11,16099.280356587371,0.001358
312,1900-01-01 21:47:38.000,21.800825,39.080235,43.64,842,-162,16394,14,10,7,0.54,-1.08,-0.19,16176.952246946888,0.001146
313,1900-01-01 21:47:38.100,21.800817,39.080223,43.73,626,-56,16090,-13,-4,7,0.5,-1.18,-0.19,16094.97747746172,0.001525
314,1900-01-01 21:47:38.200,21.800812,39.080215,43.81,86,-964,16172,-8,-12,8,0.46,-1.22,-0.26,16173.040035812686,0.000996
315,1900-01-01 21:47:38.300,21.800804,39.080204,43.82,-10,-174,16072,-3,-4,7,0.41,-1.21,-0.31,16090.97672610336,0.001443
316,1900-01-01 21:47:38.400,21.800797,39.080196,43.84,34,296,17700,9,-1,8,0.37,-1.26,-0.35,16172.971773919597,0.001135
317,1900-01-01 21:47:38.500,21.800791,39.080185,43.87,-100,-524,15476,-15,-12,8,0.31,-1.31,-0.37,16072.97781993119,0.001317
318,1900-01-01 21:47:38.600,21.800783,39.080177,43.87,332,28,16374,3,6,3,0.27,-1.33,-0.44,15476.062677567574,0.001214
319,1900-01-01 21:47:38.700,21.800776,39.080166,43.95,166,-460,14672,-25,1,6,0.24,-1.42,-0.45,15476.890773020272,0.001377
320,1900-01-01 21:47:38.800,21.80077,39.080158,43.97,-138,286,15340,-3,-13,4,0.18,-1.52,-0.52,15669.518052575835,0.001062
321,1900-01-01 21:47:38.900,21.800762,39.080147,43.89,1132,4,17990,6,9,5,0.15,-1.57,-0.54,15546.78642035067,0.001443
322,1900-01-01 21:47:39.000,21.800755,39.080139,43.92,506,-376,15666,-9,10,0,0.13,-1.63,-0.53,15679.336975778026,0.001135
323,1900-01-01 21:47:39.100,21.800749,39.080128,43.93,824,-388,15534,-9,-12,0,0.12,-1.73,-0.54,15688.172105124293,0.001317
324,1900-01-01 21:47:39.200,21.800741,39.08012,44.01,526,-456,16804,28,14,3,0.12,-1.8,-0.56,15547.745045504187,0.001214
325,1900-01-01 21:47:39.300,21.800735,39.080109,44.0,738,-518,14050,-25,-6,2,0.1,-1.85,-0.46,15533.757433409342,0.001317
326,1900-01-01 21:47:39.400,21.800728,39.080101,44.07,114,608,15520,-1,-10,0,0.1,-1.81,-0.46,14061.466637587986,0.001135
327,1900-01-01 21:47:39.500,21.80072,39.08009,44.08,462,250,13664,-23,9,3,0.08,-1.79,-0.48,14059.81664176315,0.001443
328,1900-01-01 21:47:39.700,21.800707,39.08007,44.73,308,-330,12892,-27,-39,3,0.07,-1.94,-0.58,15525.06888873605,0.002521
329,1900-01-01 21:47:39.800,21.800699,39.080063,44.75,656,294,16784,-10,-40,0,0.07,-1.88,-0.64,16788.687262558677,0.001146
330,1900-01-01 21:47:39.900,21.800692,39.080051,44.84,256,-1570,16892,-28,23,3,0.06,-1.54,-0.74,16898.030299416558,0.001463
331,1900-01-01 21:47:40.000,21.800686,39.080044,44.84,270,602,17158,34,87,0,0.04,-1.69,-0.87,16896.00733901356,0.000984
332,1900-01-01 21:47:40.100,21.800678,39.080032,44.89,2180,-1954,17458,44,27,9,-0.0,-2.21,-0.76,16895.78941630133,0.001525
333,1900-01-01 21:47:40.200,21.800671,39.080025,44.9,-192,-250,13028,21,-62,6,-0.03,-2.29,-0.5,17159.872610249764,0.001062
334,1900-01-01 21:47:40.300,21.800663,39.080013,44.93,142,210,15950,-18,-49,1,-0.05,-1.99,-0.29,17079.863582593392,0.001525
335,1900-01-01 21:47:40.400,21.800657,39.080006,44.85,34,294,17236,-4,3,2,-0.06,-1.73,-0.29,17079.324928111182,0.000984
336,1900-01-01 21:47:40.500,21.80065,39.079994,44.88,-250,-914,17078,-23,8,8,-0.1,-1.85,-0.49,17237.864136835513,0.001463
337,1900-01-01 21:47:40.600,21.800642,39.079987,44.95,838,216,17626,-40,-18,2,-0.13,-1.88,-0.62,17237.386924937317,0.001146
338,1900-01-01 21:47:40.700,21.800634,39.079975,45.21,1104,-812,19362,28,0,1,-0.16,-1.8,-0.88,17101.07493697399,0.001525
339,1900-01-01 21:47:40.800,21.800629,39.079967,45.54,-16,804,15610,15,18,2,-0.16,-1.76,-0.8,16036.669729092759,0.000996
340,1900-01-01 21:47:40.900,21.800621,39.079956,45.68,1122,-294,16014,5,19,2,-0.19,-1.88,-0.75,16037.60281338829,0.001443
341,1900-01-01 21:47:41.000,21.800613,39.079948,45.79,730,156,15234,3,15,3,-0.21,-1.9,-0.7,16021.004338055714,0.001214
342,1900-01-01 21:47:41.100,21.800606,39.079937,45.81,1032,108,16004,-20,-1,3,-0.23,-1.9,-0.69,16021.045908429325,0.001377
343,1900-01-01 21:47:41.200,21.800598,39.079929,45.8,96,-114,18436,-1,2,-2,-0.24,-1.92,-0.71,15251.90650377847,0.001214
344,1900-01-01 21:47:41.400,21.800585,39.079906,46.67,528,-274,15218,4,11,-2,-0.22,-1.95,-0.67,16013.113251332485,0.00278
345,1900-01-01 21:47:41.500,21.800577,39.079899,46.71,838,-280,14544,16,10,1,-0.21,-2.06,-0.62,15401.475383871508,0.001146
346,1900-01-01 21:47:41.600,21.80057,39.079887,46.74,362,-96,16802,20,10,-1,-0.19,-1.98,-0.49,15402.2008816922,0.001463
347,1900-01-01 21:47:41.700,21.800562,39.07988,46.62,596,-28,15392,1,-11,-1,-0.18,-1.92,-0.42,16806.17338956135,0.001146
348,1900-01-01 21:47:41.800,21.800554,39.079868,46.62,350,-188,17000,1,-28,1,-0.17,-1.85,-0.38,17004.102681411918,0.001525
349,1900-01-01 21:47:41.900,21.800547,39.079857,46.61,-78,-92,17276,19,-16,4,-0.18,-1.77,-0.38,17010.403992850963,0.001377
350,1900-01-01 21:47:42.000,21.800539,39.079849,46.58,588,124,17220,-10,12,1,-0.19,-1.71,-0.32,17010.414692181963,0.001214
351,1900-01-01 21:47:42.100,21.800531,39.079838,46.59,826,-90,14062,-3,2,3,-0.21,-1.72,-0.4,16980.433092238844,0.001443
352,1900-01-01 21:47:42.200,21.800526,39.07983,46.64,730,-472,14926,-13,-11,6,-0.22,-1.75,-0.42,16162.949854528411,0.000996
353,1900-01-01 21:47:42.300,21.800518,39.079819,46.69,332,-246,16970,28,-1,6,-0.25,-1.71,-0.41,16165.16377894143,0.001443
354,1900-01-01 21:47:42.400,21.80051,39.079807,46.83,382,80,16152,-9,2,5,-0.28,-1.64,-0.32,16158.3892761624,0.001525
355,1900-01-01 21:47:42.500,21.800503,39.0798,46.86,646,50,17816,-12,-3,0,-0.31,-1.62,-0.35,16975.02989688089,0.001062
356,1900-01-01 21:47:42.600,21.800495,39.079788,46.91,114,-524,15404,-32,-13,5,-0.33,-1.65,-0.42,16158.516887387901,0.001525
357,1900-01-01 21:47:42.700,21.800488,39.079781,46.94,184,-730,17284,-28,14,8,-0.36,-1.66,-0.58,17271.228097619463,0.001062
358,1900-01-01 21:47:42.800,21.80048,39.079769,46.98,210,-408,14466,-31,0,5,-0.4,-1.67,-0.76,17271.228097619463,0.001525
359,1900-01-01 21:47:42.900,21.800472,39.079758,47.18,354,-688,17262,-7,12,3,-0.43,-1.74,-0.9,17290.53660243082,0.001443
360,1900-01-01 21:47:43.000,21.800465,39.07975,47.39,244,-64,17444,8,-15,5,-0.44,-1.75,-0.93,17329.734216080753,0.001135
361,1900-01-01 21:47:43.200,21.800449,39.079731,47.48,1048,210,17326,3,-8,4,-0.47,-1.74,-0.9,17329.734216080753,0.002648
362,1900-01-01 21:47:43.300,21.800442,39.07972,47.48,550,76,18810,12,2,1,-0.48,-1.67,-0.87,17334.8940579399,0.001377
363,1900-01-01 21:47:43.400,21.800434,39.079708,47.49,130,-698,16734,3,2,2,-0.49,-1.58,-0.84,17240.942549640375,0.001525
364,1900-01-01 21:47:43.500,21.800426,39.0797,47.5,1234,402,17232,8,-15,2,-0.5,-1.6,-0.73,17205.907008931554,0.001214
365,1900-01-01 21:47:43.600,21.800419,39.079689,47.62,306,-480,14410,5,-7,2,-0.51,-1.55,-0.71,17208.082868233752,0.001377
366,1900-01-01 21:47:43.700,21.800411,39.079678,47.74,516,958,17198,-9,31,0,-0.5,-1.53,-0.57,17242.42627938423,0.001443
367,1900-01-01 21:47:43.800,21.800404,39.07967,47.75,528,284,18214,-14,22,-2,-0.5,-1.72,-0.52,17613.843759952,0.001135
368,1900-01-01 21:47:43.900,21.800396,39.079659,47.77,1284,100,18534,-22,-14,-5,-0.47,-1.77,-0.52,17613.843759952,0.001443
369,1900-01-01 21:47:44.000,21.800388,39.079647,47.8,376,-252,17606,-11,-6,-9,-0.44,-1.74,-0.57,17614.199385722874,0.001525
370,1900-01-01 21:47:44.100,21.800381,39.079639,47.91,446,-90,13616,-19,-12,-7,-0.39,-1.67,-0.62,17266.050967143587,0.001135
371,1900-01-01 21:47:44.200,21.800373,39.079628,47.88,802,108,17260,6,13,-10,-0.32,-1.63,-0.65,15812.839846150342,0.001443
372,1900-01-01 21:47:44.300,21.800365,39.079617,47.92,366,164,15808,-17,12,-6,-0.3,-1.73,-0.58,14711.158893846536,0.001443
373,1900-01-01 21:47:44.400,21.800358,39.079609,48.13,240,432,13852,-22,-27,-5,-0.25,-1.76,-0.61,15527.972179264103,0.001135
374,1900-01-01 21:47:44.500,21.80035,39.079597,48.22,600,-218,14704,-37,6,-7,-0.21,-1.71,-0.66,15318.406444535933,0.001525
375,1900-01-01 21:47:44.600,21.800343,39.079586,48.29,760,-32,15516,-12,18,-8,-0.18,-1.75,-0.8,15325.782851130314,0.001377
376,1900-01-01 21:47:44.700,21.800335,39.079578,48.33,20,-214,15314,-22,-9,-4,-0.15,-1.81,-0.87,15529.071189224422,0.001214
377,1900-01-01 21:47:44.800,21.800327,39.079567,48.39,724,640,16080,-10,-10,-3,-0.13,-1.81,-0.94,16084.489174356766,0.001443
378,1900-01-01 21:47:44.900,21.80032,39.079556,48.42,290,-492,16204,-14,-12,-5,-0.09,-1.78,-0.99,16134.865974032757,0.001377
379,1900-01-01 21:47:45.000,21.800312,39.079548,48.51,314,-444,16958,3,13,-8,-0.05,-1.73,-1.05,16138.063700456756,0.001214
380,1900-01-01 21:47:45.100,21.800303,39.079536,48.78,130,-270,16130,-6,19,-4,-0.01,-1.83,-0.99,16213.12270970648,0.001593
381,1900-01-01 21:47:45.300,21.800287,39.079517,49.11,352,-402,15676,6,-15,-3,0.01,-1.88,-1.01,16649.643840034536,0.002648
382,1900-01-01 21:47:45.400,21.80028,39.079506,49.08,504,-534,16640,12,-11,-6,0.05,-1.78,-0.95,16138.847790347365,0.001377
383,1900-01-01 21:47:45.500,21.800272,39.079494,49.09,554,-560,17516,30,-7,-4,0.09,-1.67,-0.89,16652.483898806207,0.001525
384,1900-01-01 21:47:45.600,21.800264,39.079483,49.17,236,-18,15572,10,6,-1,0.12,-1.64,-0.75,17007.645457264214,0.001443
385,1900-01-01 21:47:45.700,21.800257,39.079475,49.14,936,-192,17864,4,19,0,0.11,-1.69,-0.72,17005.70222013781,0.001135
386,1900-01-01 21:47:45.800,21.800249,39.079464,48.9,84,-272,16998,0,-22,2,0.09,-1.69,-0.78,15778.301683007585,0.001443
387,1900-01-01 21:47:45.900,21.80024,39.079453,48.9,452,-240,15770,-5,0,5,0.06,-1.63,-0.83,16196.593222032836,0.001514
388,1900-01-01 21:47:46.000,21.800232,39.079445,49.06,496,-656,15182,14,-12,5,0.04,-1.65,-0.85,15784.524699844465,0.001214
389,1900-01-01 21:47:46.100,21.800224,39.079433,49.01,414,-504,16188,2,-8,6,0.01,-1.63,-0.81,15257.027364463891,0.001525
390,1900-01-01 21:47:46.200,21.800217,39.079422,48.97,540,-734,15242,11,2,3,-0.02,-1.53,-0.8,15196.003948406962,0.001377
391,1900-01-01 21:47:46.300,21.800209,39.079411,49.05,50,306,12836,-1,7,4,-0.02,-1.54,-0.67,14201.012076609188,0.001443
392,1900-01-01 21:47:46.500,21.800194,39.079391,49.41,-362,162,13930,-13,-31,0,-0.02,-1.48,-0.58,14201.012076609188,0.002654
393,1900-01-01 21:47:46.600,21.800186,39.07938,49.18,-380,454,14200,-4,33,-1,0.0,-1.34,-0.55,13935.644513261666,0.001443
394,1900-01-01 21:47:46.700,21.800179,39.079369,49.28,514,56,15172,-29,-3,0,0.0,-1.54,-0.5,14205.193979668142,0.001377
395,1900-01-01 21:47:46.800,21.800171,39.079361,49.26,-500,-670,12054,-25,-61,-1,0.01,-1.46,-0.64,15177.024873142956,0.001214
396,1900-01-01 21:47:46.900,21.800163,39.07935,49.35,-806,-90,18116,7,1,-4,0.04,-1.06,-0.69,15562.962956969344,0.001443
397,1900-01-01 21:47:47.000,21.800156,39.079338,49.27,-290,-170,16316,-3,23,-1,0.05,-0.96,-0.7,15896.759040760478,0.001463
398,1900-01-01 21:47:47.100,21.800148,39.07933,49.27,-638,-814,15554,-10,-24,-5,0.06,-0.99,-0.71,16321.356561266592,0.001214
399,1900-01-01 21:47:47.300,21.800131,39.079308,49.23,-382,-468,15882,-9,-28,-3,0.09,-0.73,-0.76,15885.931763670647,0.002955
400,1900-01-01 21:47:47.400,21.800123,39.079296,49.22,60,78,16912,-3,-1,-2,0.11,-0.47,-0.76,15557.94060921946,0.001525
401,1900-01-01 21:47:47.500,21.800116,39.079288,49.17,-286,-202,15396,9,3,-2,0.12,-0.4,-0.8,15884.32120047942,0.001135
402,1900-01-01 21:47:47.600,21.800108,39.079277,49.19,-250,222,15438,-2,7,-1,0.14,-0.38,-0.77,15960.190725677434,0.001443
403,1900-01-01 21:47:47.700,21.8001,39.079266,49.15,-2,-106,16728,10,11,-4,0.17,-0.35,-0.73,15961.958401148651,0.001443
404,1900-01-01 21:47:47.800,21.800093,39.079254,49.11,236,190,15960,-10,-15,-5,0.19,-0.26,-0.68,16619.0862564703,0.001463
405,1900-01-01 21:47:47.900,21.800085,39.079247,48.99,-486,4,19730,15,42,-4,0.22,-0.05,-0.67,16620.761715396802,0.001146
406,1900-01-01 21:47:48.000,21.800077,39.079235,48.97,1122,482,16618,17,65,-2,0.24,-0.3,-0.63,16624.440562015912,0.001525
407,1900-01-01 21:47:48.100,21.80007,39.079224,48.95,602,580,13576,-13,-30,-3,0.25,-0.5,-0.58,16633.662615311157,0.001377
408,1900-01-01 21:47:48.200,21.800062,39.079212,48.9,-4,398,16680,-5,-17,-6,0.27,-0.27,-0.54,16635.484723926744,0.001525
409,1900-01-01 21:47:48.300,21.800055,39.079205,48.93,1294,380,13426,-28,1,-5,0.3,-0.2,-0.6,16684.748125159098,0.001062
410,1900-01-01 21:47:48.400,21.800047,39.079193,48.95,-522,468,17518,-2,-33,-5,0.33,-0.21,-0.71,16684.32845517014,0.001525
411,1900-01-01 21:47:48.500,21.800039,39.079182,48.94,-542,-204,18218,0,10,0,0.35,-0.04,-0.77,16355.145123171485,0.001443
412,1900-01-01 21:47:48.600,21.800032,39.07917,48.94,108,302,15674,-1,23,1,0.35,-0.18,-0.82,16353.439882789187,0.001463
413,1900-01-01 21:47:48.700,21.800024,39.079163,49.03,616,-290,16352,4,-8,1,0.34,-0.38,-0.82,15677.054570294766,0.001146
414,1900-01-01 21:47:48.800,21.800016,39.079151,49.04,74,-588,15054,-8,-18,7,0.31,-0.42,-0.81,15067.620117324434,0.001525
415,1900-01-01 21:47:48.900,21.800009,39.07914,49.09,670,-1004,13548,-21,-2,19,0.23,-0.44,-0.97,15082.071740977763,0.001377
416,1900-01-01 21:47:49.100,21.799994,39.079121,49.02,254,-884,14100,-16,-20,22,0.08,-0.44,-1.2,15082.071740977763,0.002575
417,1900-01-01 21:47:49.200,21.799986,39.079109,48.94,-422,-1118,18324,2,-2,22,-0.09,-0.32,-1.44,14137.981892759659,0.001525
418,1900-01-01 21:47:49.300,21.799978,39.079098,48.9,716,-264,16528,-3,23,20,-0.3,-0.45,-1.52,15790.809605590208,0.001443
419,1900-01-01 21:47:49.400,21.799971,39.07909,48.83,-12,-1662,13988,22,-4,17,-0.43,-0.57,-1.58,15793.143955527032,0.001135
420,1900-01-01 21:47:49.500,21.799963,39.079079,48.74,1008,-638,15764,11,11,10,-0.52,-0.74,-1.43,15790.638872445916,0.001443
421,1900-01-01 21:47:49.700,21.799948,39.079056,48.74,878,898,15614,-8,-32,8,-0.58,-0.86,-1.19,15789.412781987809,0.002902
422,1900-01-01 21:47:49.800,21.79994,39.079048,48.89,906,-176,18846,25,-15,3,-0.65,-0.73,-1.13,17163.375542124573,0.001214
423,1900-01-01 21:47:49.900,21.799932,39.079037,48.93,48,-130,17862,8,-27,10,-0.7,-0.62,-1.06,17140.97080097857,0.001443
424,1900-01-01 21:47:50.000,21.799925,39.079025,49.03,16,-770,17140,16,-3,8,-0.77,-0.54,-1.05,17141.77552063963,0.001463
425,1900-01-01 21:47:50.200,21.79991,39.079006,49.06,-2,-468,14036,-14,16,10,-0.83,-0.61,-1.02,16939.79669299487,0.002575
426,1900-01-01 21:47:50.300,21.799902,39.078995,49.08,716,-242,16938,-7,8,9,-0.9,-0.76,-1.06,16954.853700341977,0.001443
427,1900-01-01 21:47:50.400,21.799894,39.078983,49.1,1028,248,16716,-36,0,5,-0.95,-0.83,-1.08,16953.153099055053,0.001525
428,1900-01-01 21:47:50.500,21.799887,39.078976,49.16,1092,472,17544,3,2,-9,-0.95,-0.92,-1.04,17533.450316466522,0.001062
429,1900-01-01 21:47:50.600,21.799877,39.078964,49.21,-38,30,17518,9,-11,-11,-0.85,-0.92,-0.91,17530.95342529892,0.001665
430,1900-01-01 21:47:50.700,21.79987,39.078953,49.19,652,170,18538,-9,22,-9,-0.79,-0.94,-0.83,17530.154819624382,0.001377
431,1900-01-01 21:47:50.800,21.799862,39.078941,49.27,492,-112,16618,-3,-15,-9,-0.73,-1.15,-0.76,17525.26553293844,0.001525
432,1900-01-01 21:47:50.900,21.799854,39.078934,49.22,1264,-254,13478,-28,-34,-9,-0.69,-1.19,-0.69,16627.221776352177,0.001146
433,1900-01-01 21:47:51.000,21.799847,39.078922,49.18,310,-306,17728,8,-5,-12,-0.63,-1.05,-0.68,16622.83188870055,0.001463
434,1900-01-01 21:47:51.200,21.799829,39.078903,49.29,290,-486,14526,15,10,-8,-0.56,-1.02,-0.57,14531.114616573637,0.002802
435,1900-01-01 21:47:51.300,21.799822,39.078892,49.29,108,760,16744,15,-12,-8,-0.49,-1.16,-0.44,14729.473174557195,0.001377
436,1900-01-01 21:47:51.400,21.799814,39.07888,49.32,228,656,14176,0,-33,-12,-0.42,-1.2,-0.27,14729.473174557195,0.001525
437,1900-01-01 21:47:51.500,21.799807,39.078873,49.44,1492,1674,14712,5,-9,-14,-0.29,-1.32,-0.06,16262.83566909535,0.001062
438,1900-01-01 21:47:51.600,21.799799,39.078861,49.43,688,-960,16932,-18,-27,-17,-0.17,-1.27,0.02,16237.85022716985,0.001525
439,1900-01-01 21:47:51.700,21.799791,39.07885,49.41,-1086,-378,16248,7,52,-8,-0.1,-1.23,0.05,16271.456357683537,0.001443
440,1900-01-01 21:47:51.800,21.799784,39.078838,49.4,1170,902,16210,9,15,-4,-0.05,-1.5,0.08,16954.510078442254,0.001463
441,1900-01-01 21:47:51.900,21.799774,39.078831,49.4,528,538,19194,6,-5,-12,0.07,-1.39,0.15,18092.740090986772,0.001326
442,1900-01-01 21:47:52.100,21.799759,39.078808,49.7,730,874,18266,-10,26,-10,0.13,-1.29,0.15,18290.48211502365,0.002902
443,1900-01-01 21:47:52.300,21.799744,39.078789,49.74,752,-492,18070,-23,8,-12,0.2,-1.42,0.14,18289.38774262277,0.002575
444,1900-01-01 21:47:52.400,21.799736,39.078777,49.8,800,574,18950,-2,17,-3,0.24,-1.41,-0.0,18284.45131799147,0.001525
445,1900-01-01 21:47:52.500,21.799728,39.078766,49.76,1186,-976,17862,17,31,2,0.24,-1.62,-0.14,18088.65124878027,0.001443
446,1900-01-01 21:47:52.600,21.799721,39.078754,49.61,466,-330,18498,32,16,1,0.24,-1.66,-0.09,17878.09665484556,0.001463
447,1900-01-01 21:47:52.700,21.799713,39.078743,49.58,600,654,13164,4,-22,3,0.24,-1.59,0.02,17499.40273266491,0.001443
448,1900-01-01 21:47:52.900,21.799698,39.078724,49.93,504,464,16308,11,21,-1,0.22,-1.59,0.05,17496.302352211453,0.002575
449,1900-01-01 21:47:53.000,21.79969,39.078712,50.14,896,-346,17486,-19,-34,0,0.22,-1.62,0.07,16982.614168613734,0.001525
450,1900-01-01 21:47:53.100,21.799683,39.078701,50.04,552,-236,17972,19,32,3,0.21,-1.52,-0.02,16981.48214968293,0.001377
451,1900-01-01 21:47:53.300,21.799665,39.078682,50.07,516,-644,16972,9,-30,0,0.2,-1.69,-0.02,17496.302352211453,0.002802
452,1900-01-01 21:47:53.400,21.799658,39.078671,50.06,-496,-32,14468,-8,-19,5,0.19,-1.54,0.03,16981.48214968293,0.001377
453,1900-01-01 21:47:53.500,21.79965,39.078659,50.01,1762,740,17904,6,17,4,0.15,-1.66,0.04,15252.622200788952,0.001525
454,1900-01-01 21:47:53.700,21.799635,39.078636,50.15,190,-602,15232,-4,-28,4,0.12,-1.57,-0.06,15090.126705896144,0.002902
455,1900-01-01 21:47:53.800,21.799627,39.078625,50.21,604,-1114,15078,-21,7,8,0.07,-1.48,-0.15,15244.096693474494,0.001443
456,1900-01-01 21:47:53.900,21.79962,39.078617,50.26,1114,100,14924,-9,-11,11,-0.0,-1.66,-0.27,15250.650609072389,0.001135
457,1900-01-01 21:47:54.100,21.799604,39.078594,50.45,454,62,19062,8,14,13,-0.1,-1.65,-0.42,15762.852914368008,0.002967
458,1900-01-01 21:47:54.200,21.799597,39.078583,50.44,438,-720,15750,-20,-9,15,-0.23,-1.62,-0.63,16849.599520463387,0.001377
459,1900-01-01 21:47:54.300,21.799589,39.078571,50.51,432,-446,16838,-9,6,15,-0.32,-1.57,-0.71,16858.92250412226,0.001525
460,1900-01-01 21:47:54.500,21.799574,39.078552,50.65,-186,-1136,17444,-22,3,31,-0.49,-1.57,-1.03,15796.823098332145,0.002575
461,1900-01-01 21:47:54.600,21.799564,39.078541,50.78,8,-3304,13878,-49,24,73,-0.91,-1.66,-1.85,15244.618853877588,0.001589
462,1900-01-01 21:47:54.700,21.799557,39.078529,50.92,754,-3128,14914,-35,-17,107,-1.78,-1.87,-3.07,15251.104222317806,0.001463
463,1900-01-01 21:47:54.800,21.799549,39.078518,51.08,852,-3782,12738,-8,-8,104,-2.43,-1.92,-3.66,15251.104222317806,0.001443
464,1900-01-01 21:47:55.000,21.799534,39.078495,51.06,620,-2292,15790,-16,-33,95,-3.17,-1.99,-4.13,15815.140846669687,0.002902
465,1900-01-01 21:47:55.100,21.799524,39.078484,51.1,-8,-1962,15630,15,15,94,-3.79,-2.02,-4.53,15796.243224260634,0.001589
466,1900-01-01 21:47:55.200,21.799517,39.078476,51.17,880,-2200,17112,28,40,78,-4.38,-2.33,-4.67,15764.857880742218,0.001135
467,1900-01-01 21:47:55.300,21.799509,39.078465,51.22,514,-590,12290,-4,-21,46,-4.93,-2.62,-4.5,15665.867355496152,0.001443
468,1900-01-01 21:47:55.400,21.799501,39.078453,51.39,914,262,14318,-13,-20,27,-5.16,-2.62,-4.25,14354.878891861123,0.001525
469,1900-01-01 21:47:55.500,21.799492,39.078442,51.61,940,-532,21676,11,11,6,-5.26,-2.61,-4.02,14349.53532348696,0.001514
470,1900-01-01 21:47:55.600,21.799482,39.07843,51.56,-150,476,11812,-22,5,-10,-5.22,-2.53,-3.57,15153.08206273562,0.001665
471,1900-01-01 21:47:55.800,21.799465,39.078411,51.76,920,1246,18022,-1,27,-34,-5.06,-2.6,-3.06,15466.016164481402,0.002724
472,1900-01-01 21:47:55.900,21.799458,39.0784,52.03,548,1862,15118,-15,-2,-54,-4.74,-2.62,-2.35,15225.89701790998,0.001377
473,1900-01-01 21:47:56.000,21.799448,39.078388,52.36,220,1796,15406,-7,-33,-75,-4.27,-2.57,-1.65,15519.673965647604,0.001665
474,1900-01-01 21:47:56.100,21.799438,39.078381,52.37,186,2732,15064,-22,1,-83,-3.56,-2.45,-0.65,15519.229233438109,0.001326
475,1900-01-01 21:47:56.200,21.799431,39.078369,52.52,-144,2216,18934,-2,8,-86,-2.99,-2.34,-0.04,15975.926514603152,0.001463
476,1900-01-01 21:47:56.300,21.799421,39.078358,52.6,-172,1532,15874,9,2,-77,-2.55,-2.37,0.35,15948.682829625774,0.001589
477,1900-01-01 21:47:56.500,21.799402,39.078339,52.84,-206,884,18590,12,0,-65,-2.05,-2.34,0.79,15985.38832809513,0.002883
478,1900-01-01 21:47:56.600,21.799395,39.078327,53.27,-266,292,14606,-12,-15,-36,-1.73,-2.3,0.91,15877.617075619377,0.001463
479,1900-01-01 21:47:56.700,21.799385,39.078316,53.32,468,-510,15960,-2,-21,-29,-1.52,-2.19,0.93,15490.069851359613,0.001589
480,1900-01-01 21:47:56.800,21.799376,39.078304,53.38,202,-98,15486,-22,-12,-31,-1.34,-2.05,1.03,15492.79755241125,0.001593
481,1900-01-01 21:47:56.900,21.799368,39.078293,53.44,354,562,15454,-18,21,-25,-1.16,-2.07,1.06,15788.273369814699,0.001443
482,1900-01-01 21:47:57.000,21.799358,39.078281,53.3,1256,452,18706,0,-19,-14,-1.04,-2.19,0.89,15786.221080423269,0.001665
483,1900-01-01 21:47:57.100,21.799351,39.07827,53.25,246,-684,15784,3,24,-7,-0.96,-1.9,0.67,15851.517656047954,0.001377
484,1900-01-01 21:47:57.200,21.799341,39.078259,53.17,-510,-816,15848,-11,-14,-10,-0.9,-1.94,0.63,17030.855879843504,0.001589
485,1900-01-01 21:47:57.300,21.799332,39.078251,53.22,292,-162,17020,-9,4,-11,-0.84,-2.04,0.66,16229.392348452237,0.001298
486,1900-01-01 21:47:57.400,21.799324,39.078239,53.23,148,-556,18184,26,-26,-10,-0.78,-1.83,0.66,16243.48213899963,0.001525
487,1900-01-01 21:47:57.600,21.799307,39.078217,53.71,1100,450,16218,10,-2,-5,-0.72,-1.7,0.72,16243.48213899963,0.002955
488,1900-01-01 21:47:57.700,21.799297,39.078205,53.66,-458,-110,16242,8,-24,-8,-0.67,-1.65,0.73,16233.989774544027,0.001665
489,1900-01-01 21:47:57.800,21.79929,39.078194,53.61,-568,-860,8376,-37,47,-8,-0.61,-1.62,0.74,15193.435687822554,0.001377
490,1900-01-01 21:47:57.900,21.799282,39.078182,53.7,-864,-750,15168,-3,12,-10,-0.55,-1.58,0.62,15193.435687822554,0.001525
491,1900-01-01 21:47:58.000,21.799273,39.078171,53.75,1246,-970,10586,-37,11,-10,-0.5,-1.48,0.55,15187.847905480223,0.001514
492,1900-01-01 21:47:58.100,21.799265,39.078159,53.8,600,16,15754,-24,8,-8,-0.44,-1.53,0.43,15254.099121219844,0.001525
493,1900-01-01 21:47:58.200,21.799255,39.078148,53.88,200,-438,18582,-5,13,-10,-0.37,-1.68,0.31,15492.238702008177,0.001589
494,1900-01-01 21:47:58.300,21.799248,39.078136,53.91,672,-378,15236,-8,-12,-6,-0.32,-1.86,0.29,15765.429648442823,0.001463
495,1900-01-01 21:47:58.400,21.799238,39.078125,53.93,-832,40,15476,3,-24,-7,-0.28,-1.74,0.26,15481.907505213949,0.001589
496,1900-01-01 21:47:58.500,21.799231,39.078114,53.95,1130,384,16216,12,-34,-7,-0.24,-1.64,0.25,15480.575183112545,0.001377
497,1900-01-01 21:47:58.600,21.799223,39.078102,53.96,-696,-812,13298,-3,-60,-3,-0.2,-1.4,0.25,15530.560453505856,0.001525
498,1900-01-01 21:47:58.800,21.799206,39.078079,53.93,-376,-16,17828,-15,38,-4,-0.17,-1.17,0.25,16226.379633177574,0.003035
499,1900-01-01 21:47:58.900,21.799196,39.078068,53.97,442,-376,15526,-26,33,2,-0.17,-1.39,0.14,16732.91522718023,0.001589
500,1900-01-01 21:47:59.000,21.799189,39.078056,53.99,842,-566,16726,-17,3,1,-0.2,-1.6,-0.04,16728.697857275085,0.001463
501,1900-01-01 21:47:59.100,21.799181,39.078045,53.98,300,82,17146,3,-14,-1,-0.2,-1.48,-0.2,16497.01415408255,0.001443
502,1900-01-01 21:47:59.200,21.799171,39.078033,54.04,158,106,16490,26,29,-1,-0.19,-1.41,-0.27,16492.82450036985,0.001665
503,1900-01-01 21:47:59.300,21.799164,39.078022,54.05,-144,-578,14818,-4,0,-2,-0.18,-1.46,-0.22,16187.118211713905,0.001377
504,1900-01-01 21:47:59.400,21.799154,39.078011,54.17,294,454,15394,-6,-2,1,-0.17,-1.35,-0.31,16187.118211713905,0.001589
505,1900-01-01 21:47:59.500,21.799147,39.077999,54.01,-40,152,16186,-5,-2,0,-0.17,-1.33,-0.34,15400.506225445968,0.001463
506,1900-01-01 21:47:59.600,21.799137,39.077988,54.05,294,-384,16922,-8,-10,1,-0.18,-1.22,-0.52,16188.274522011294,0.001589
507,1900-01-01 21:47:59.700,21.799129,39.077976,54.13,230,-774,13354,-3,2,1,-0.17,-1.16,-0.61,16188.274522011294,0.001525
508,1900-01-01 21:47:59.800,21.799122,39.077961,54.23,110,-144,16830,17,-5,2,-0.19,-1.16,-0.69,15199.695918010992,0.001733
509,1900-01-01 21:47:59.900,21.799112,39.07795,54.3,1292,910,15192,-16,-8,-1,-0.19,-1.15,-0.67,15213.4427398929,0.001589
510,1900-01-01 21:48:00.000,21.799105,39.077938,54.28,6962,-1554,12378,-13,-160,3,-0.17,-0.83,-0.54,16901.95006500729,0.001463
511,1900-01-01 21:48:00.200,21.799088,39.077915,54.36,-8220,-7612,26596,49,124,-7,-0.16,-0.35,-0.57,16426.494696069516,0.003035
512,1900-01-01 21:48:00.300,21.79908,39.077904,54.3,-16726,-4348,24914,79,-210,31,-0.22,-0.62,-0.88,14432.358227261406,0.001443
513,1900-01-01 21:48:00.400,21.79907,39.077892,54.29,-5708,-2540,9868,-27,-12,10,-0.3,-1.27,-0.71,17446.97578378557,0.001665
514,1900-01-01 21:48:00.500,21.799063,39.077881,54.3,-266,-888,13010,-8,-11,6,-0.34,-0.9,-0.89,16316.35375934219,0.001377
515,1900-01-01 21:48:00.600,21.799053,39.077869,54.31,786,256,16290,9,-7,3,-0.36,-0.76,-0.96,16311.431328979073,0.001665
516,1900-01-01 21:48:00.700,21.799046,39.077858,54.32,704,-834,16484,4,-14,1,-0.38,-0.75,-0.96,16506.320486407625,0.001377
517,1900-01-01 21:48:00.800,21.799038,39.077847,54.29,-56,-556,18408,8,12,3,-0.4,-0.7,-0.92,16494.61111999916,0.001443
518,1900-01-01 21:48:00.900,21.799028,39.077835,54.27,202,-950,16770,3,18,2,-0.43,-0.72,-0.96,16494.61111999916,0.001665
519,1900-01-01 21:48:01.000,21.799021,39.077824,54.27,-84,-320,15464,-8,-7,2,-0.45,-0.74,-0.93,16526.73990840299,0.001377
520,1900-01-01 21:48:01.100,21.799011,39.077812,54.33,208,-498,16060,1,-5,-3,-0.45,-0.74,-0.91,16522.408662177557,0.001665
521,1900-01-01 21:48:01.300,21.798994,39.077789,54.35,398,102,16518,-18,13,-2,-0.44,-0.76,-0.84,16521.11146382107,0.003035
522,1900-01-01 21:48:01.400,21.798986,39.077778,54.35,316,-244,17392,-5,15,-2,-0.43,-0.82,-0.9,16521.11146382107,0.001443
523,1900-01-01 21:48:01.500,21.798977,39.077766,54.58,-560,-14,17782,-21,3,-2,-0.42,-0.87,-0.91,16844.238658959923,0.001593
524,1900-01-01 21:48:01.600,21.798969,39.077755,54.57,-652,-704,15274,-17,-28,-2,-0.41,-0.77,-1.02,17394.167873169445,0.001443
525,1900-01-01 21:48:01.700,21.79896,39.077744,54.59,-126,-708,16842,22,4,-5,-0.38,-0.6,-1.12,16959.253993026934,0.001514
526,1900-01-01 21:48:01.800,21.798952,39.077732,54.53,-48,298,18980,-6,-16,-8,-0.35,-0.49,-1.1,16842.74490693248,0.001525
527,1900-01-01 21:48:01.900,21.798943,39.077721,54.54,-758,18,16950,-16,14,-3,-0.3,-0.17,-1.15,16842.34199866515,0.001514
528,1900-01-01 21:48:02.000,21.798935,39.077709,54.5,114,-96,16490,-7,12,-2,-0.3,-0.2,-1.22,16950.33981960244,0.001525
529,1900-01-01 21:48:02.100,21.798927,39.077698,54.52,498,-600,13518,4,-14,-4,-0.28,-0.24,-1.29,16501.554593431494,0.001443
530,1900-01-01 21:48:02.200,21.798918,39.077686,54.5,-510,-348,17090,6,-31,-4,-0.25,-0.09,-1.23,16501.554593431494,0.001593
531,1900-01-01 21:48:02.300,21.798908,39.077675,54.46,-672,-772,15668,20,-4,-2,-0.23,0.07,-1.21,16601.48499381908,0.001589
532,1900-01-01 21:48:02.500,21.798893,39.077652,54.3,-538,-236,17370,31,13,0,-0.22,0.09,-1.08,16600.398790390547,0.002902
533,1900-01-01 21:48:02.600,21.798883,39.077641,54.24,-162,-160,16590,7,-8,0,-0.21,0.12,-0.93,16599.492281392224,0.001589
534,1900-01-01 21:48:02.700,21.798876,39.077629,54.18,-546,-18,14266,19,-9,5,-0.22,0.15,-0.87,16597.888299419297,0.001463
535,1900-01-01 21:48:02.800,21.798866,39.077618,54.11,44,-70,18446,12,27,4,-0.24,0.18,-0.8,16591.562433960222,0.001589
536,1900-01-01 21:48:02.900,21.798859,39.077606,54.07,-486,-712,15444,-2,16,2,-0.27,0.06,-0.76,15764.216821650227,0.001463
537,1900-01-01 21:48:03.000,21.798849,39.077595,54.03,388,-642,17610,12,3,2,-0.28,-0.02,-0.78,17454.324163369947,0.001589
538,1900-01-01 21:48:03.100,21.798841,39.077583,54.03,340,244,15764,-13,-29,1,-0.29,0.1,-0.77,17454.913233814714,0.001525
539,1900-01-01 21:48:03.200,21.798832,39.077572,53.83,-190,-386,17450,-17,23,1,-0.3,0.34,-0.78,17456.942343950155,0.001514
540,1900-01-01 21:48:03.300,21.798824,39.077557,53.67,150,758,18376,-6,31,3,-0.32,0.08,-0.8,16184.611085843244,0.001786
541,1900-01-01 21:48:03.400,21.798817,39.077549,53.6,1390,-356,15594,-10,-22,-1,-0.36,-0.03,-0.86,17454.27557935304,0.001135
542,1900-01-01 21:48:03.500,21.798809,39.077538,53.49,-570,-434,16180,-10,24,3,-0.36,-0.01,-0.9,16199.74666468584,0.001443
543,1900-01-01 21:48:03.600,21.7988,39.077522,53.44,1426,330,19864,11,4,-1,-0.38,-0.17,-0.94,16005.913532191782,0.001931
544,1900-01-01 21:48:03.700,21.798792,39.077515,53.31,716,-1112,11958,-11,-19,5,-0.39,-0.34,-0.95,16014.218307491627,0.001146
545,1900-01-01 21:48:03.900,21.798775,39.077492,53.21,344,-712,15984,-4,-2,1,-0.41,-0.3,-0.91,16014.218307491627,0.003035
546,1900-01-01 21:48:04.000,21.798767,39.07748,53.2,1688,-674,15884,-10,-10,1,-0.42,-0.31,-0.89,16001.902011948454,0.001525
547,1900-01-01 21:48:04.100,21.798759,39.077469,53.11,174,170,16062,-6,-20,-2,-0.44,-0.3,-0.84,16066.58271070734,0.001443
548,1900-01-01 21:48:04.200,21.79875,39.077457,53.27,-44,1064,16296,27,13,-18,-0.39,-0.25,-0.66,16331.625393695509,0.001593
549,1900-01-01 21:48:04.300,21.798742,39.077446,53.28,430,2318,18148,41,8,-57,-0.16,-0.36,0.03,16761.117504510254,0.001443
550,1900-01-01 21:48:04.400,21.798733,39.077435,53.31,-386,3180,18390,59,-10,-101,0.38,-0.47,1.06,18017.05569731081,0.001514
551,1900-01-01 21:48:04.500,21.798725,39.077423,53.33,-500,3876,16600,35,-21,-128,1.16,-0.36,2.28,18024.158676620664,0.001525
552,1900-01-01 21:48:04.600,21.798717,39.077412,53.34,-814,4136,17730,-7,-9,-142,2.07,-0.21,3.42,16913.822631209066,0.001443
553,1900-01-01 21:48:04.700,21.798708,39.0774,53.37,-278,3220,16464,-11,8,-135,3.27,-0.21,4.38,16916.808209588475,0.001593
554,1900-01-01 21:48:04.800,21.7987,39.077389,53.38,-42,2436,14046,-36,-13,-120,4.04,-0.28,4.83,16646.670417834313,0.001443
555,1900-01-01 21:48:04.900,21.798693,39.077377,53.41,-770,2388,16764,-7,12,-101,4.71,-0.29,5.03,15543.05516943178,0.001463
556,1900-01-01 21:48:05.000,21.798685,39.077366,53.43,-338,1888,15356,-39,19,-76,5.35,-0.33,5.08,15469.70019101857,0.001443
557,1900-01-01 21:48:05.200,21.798668,39.077343,53.43,366,14,15354,-74,-20,-43,5.63,-0.34,4.68,15356.839909304257,0.003035
558,1900-01-01 21:48:05.300,21.79866,39.077332,53.4,282,-992,15232,-67,-6,11,5.72,-0.25,3.79,15388.84011223718,0.001443
559,1900-01-01 21:48:05.400,21.798651,39.07732,53.41,160,-2550,16818,-25,-1,46,5.5,-0.23,2.56,16935.22093153792,0.001593
560,1900-01-01 21:48:05.500,21.798643,39.077305,53.27,92,-2058,17260,-13,-4,46,5.12,-0.16,1.49,17374.23909125231,0.001786
561,1900-01-01 21:48:05.600,21.798635,39.077293,53.28,210,-1978,17644,-10,2,48,4.68,-0.19,0.63,17373.706685678793,0.001525
562,1900-01-01 21:48:05.700,21.798628,39.077282,53.3,220,-1048,17826,-16,-12,49,4.37,-0.16,0.06,17373.21351966872,0.001377
563,1900-01-01 21:48:05.900,21.798613,39.077259,53.24,-210,-1848,15068,-9,3,50,4.03,-0.2,-0.54,16035.84509778016,0.002902
564,1900-01-01 21:48:06.000,21.798605,39.077248,53.33,-500,-2496,15912,2,1,49,3.7,-0.25,-1.11,16019.45517175912,0.001443
565,1900-01-01 21:48:06.100,21.798597,39.077236,53.27,324,-2016,15238,-17,-8,52,3.33,-0.25,-1.6,16019.45517175912,0.001525
566,1900-01-01 21:48:06.200,21.79859,39.077225,53.24,-36,-1852,17112,-2,-9,47,3.0,-0.26,-2.02,16792.477482491973,0.001377
567,1900-01-01 21:48:06.300,21.798584,39.077209,52.99,674,-1436,16976,-2,10,48,2.66,-0.23,-2.39,17050.89698520286,0.001782
568,1900-01-01 21:48:06.400,21.798576,39.077198,52.68,-282,-1586,16690,-11,-24,48,2.24,-0.14,-2.84,17052.330280639067,0.001443
569,1900-01-01 21:48:06.500,21.798569,39.077187,52.61,-538,-1596,17084,-6,21,50,1.96,0.03,-3.16,16767.632271731152,0.001377
570,1900-01-01 21:48:06.600,21.798561,39.077175,52.52,-224,-2070,13716,-3,26,51,1.64,-0.2,-3.43,16707.130214372544,0.001525
571,1900-01-01 21:48:06.700,21.798553,39.077164,52.48,-208,-2302,14708,-3,-24,48,1.33,-0.33,-3.68,16226.137556424203,0.001443
572,1900-01-01 21:48:06.900,21.798538,39.077141,52.23,-1258,-2268,16576,5,-13,45,1.06,-0.15,-3.86,16225.924565336793,0.002902
573,1900-01-01 21:48:07.000,21.798531,39.077129,52.13,752,-780,16092,15,52,39,0.83,-0.1,-3.88,16551.49902576803,0.001463
574,1900-01-01 21:48:07.100,21.798525,39.077118,51.98,606,-746,16862,38,18,26,0.61,-0.48,-3.75,16603.84076049876,0.001317
575,1900-01-01 21:48:07.200,21.798517,39.077106,51.87,1670,-306,16522,16,-35,17,0.47,-0.46,-3.56,16890.775470652614,0.001525
576,1900-01-01 21:48:07.300,21.79851,39.077095,51.79,-390,-630,17494,25,-26,16,0.36,-0.23,-3.29,17100.357306208545,0.001377
577,1900-01-01 21:48:07.400,21.798502,39.077084,51.75,644,-1204,18862,31,-2,14,0.26,-0.06,-3.11,17082.97093599354,0.001443
578,1900-01-01 21:48:07.500,21.798494,39.077072,51.62,-12,30,17078,4,19,18,0.13,-0.07,-2.84,17090.833800607856,0.001525
579,1900-01-01 21:48:07.600,21.798487,39.077061,51.61,276,66,16762,-16,-4,14,-0.03,-0.1,-2.8,17103.715268911605,0.001377
580,1900-01-01 21:48:07.700,21.798479,39.077049,51.59,204,-896,16396,-10,-5,14,-0.11,-0.02,-2.9,16787.169981864125,0.001525
581,1900-01-01 21:48:07.900,21.798464,39.077026,51.7,1308,-1412,19870,-5,25,13,-0.22,-0.12,-2.92,16788.199307847164,0.002902
582,1900-01-01 21:48:08.000,21.798456,39.077015,51.79,98,-916,14394,-16,-20,14,-0.35,-0.24,-2.93,16421.73096844544,0.001443
583,1900-01-01 21:48:08.100,21.798449,39.077003,51.94,370,-398,18022,-13,-11,11,-0.44,-0.13,-2.92,17738.284133478075,0.001463
584,1900-01-01 21:48:08.200,21.798441,39.076992,52.11,190,-144,16176,-17,-16,8,-0.56,-0.15,-2.87,16193.668515811974,0.001443
585,1900-01-01 21:48:08.300,21.798433,39.076981,52.23,204,-732,17722,-21,-26,4,-0.61,-0.22,-2.82,16711.820367632008,0.001443
586,1900-01-01 21:48:08.500,21.798418,39.076958,52.26,150,-1082,15190,-9,-6,7,-0.65,-0.24,-2.85,16193.668515811974,0.002902
587,1900-01-01 21:48:08.600,21.798409,39.076946,52.35,-264,-280,16706,-1,20,9,-0.71,-0.3,-2.79,16722.701934795106,0.001593
588,1900-01-01 21:48:08.700,21.798401,39.076935,52.39,1836,-756,11532,-16,-8,5,-0.79,-0.49,-2.73,16710.638288228252,0.001443
589,1900-01-01 21:48:08.800,21.798393,39.076927,52.48,-12,224,25040,62,31,3,-0.84,-0.52,-2.6,16709.96935963678,0.001214
590,1900-01-01 21:48:09.000,21.798376,39.076904,52.5,676,-364,18544,20,31,6,-0.88,-0.56,-2.47,15744.399893295393,0.003035
591,1900-01-01 21:48:09.100,21.798368,39.076893,52.44,-72,-372,15032,-8,4,2,-0.91,-0.63,-2.28,15744.399893295393,0.001443
592,1900-01-01 21:48:09.200,21.798359,39.076881,52.47,-576,-932,15740,5,6,2,-0.93,-0.56,-2.28,15744.559949392044,0.001593
593,1900-01-01 21:48:09.300,21.798351,39.07687,52.4,72,-1018,14842,-25,10,5,-0.98,-0.49,-2.16,15036.77465416038,0.001443
594,1900-01-01 21:48:09.400,21.798344,39.076859,52.33,758,924,18086,-1,41,3,-1.01,-0.54,-2.12,15753.08947476653,0.001377
595,1900-01-01 21:48:09.600,21.798326,39.076836,52.5,-676,134,12142,-21,-2,9,-1.05,-0.7,-2.13,17223.828610387412,0.003106
596,1900-01-01 21:48:09.700,21.798319,39.076824,52.35,276,-638,17220,5,-9,2,-1.07,-0.6,-2.16,17223.828610387412,0.001463
597,1900-01-01 21:48:09.800,21.798311,39.076817,52.26,546,-236,20424,-25,-23,-2,-1.09,-0.46,-2.12,13586.603549084664,0.001146
598,1900-01-01 21:48:09.900,21.798302,39.076805,52.17,-5652,-4902,10010,5,-6,7,-1.1,-0.31,-2.19,16423.722476953877,0.001593
599,1900-01-01 21:48:10.100,21.798286,39.076782,51.79,-482,-138,13576,-11,0,0,-1.1,-0.14,-2.17,16422.938226760765,0.002967
600,1900-01-01 21:48:10.200,21.798277,39.076771,51.92,258,120,16420,-2,34,2,-1.13,-0.17,-2.05,16425.555698362234,0.001514
601,1900-01-01 21:48:10.300,21.798269,39.076759,51.51,-202,-308,18378,21,2,4,-1.15,-0.29,-1.94,16424.95333326704,0.001525
602,1900-01-01 21:48:10.400,21.798262,39.076748,51.59,-296,-678,18180,26,-2,2,-1.18,-0.1,-1.92,16425.555698362234,0.001377
603,1900-01-01 21:48:10.600,21.798244,39.076729,51.61,-752,-274,14508,21,4,0,-1.19,-0.08,-1.8,16173.642261407911,0.002803
604,1900-01-01 21:48:10.700,21.798237,39.076717,51.62,-404,-394,14096,11,-7,-1,-1.18,-0.07,-1.62,15671.19165858168,0.001463
605,1900-01-01 21:48:10.800,21.798227,39.076706,51.58,96,598,16168,1,4,-5,-1.15,-0.03,-1.38,15671.21871457354,0.001589
606,1900-01-01 21:48:10.900,21.79822,39.076694,51.55,-278,118,15666,3,-44,-5,-1.09,0.26,-1.24,15975.11940487457,0.001463
607,1900-01-01 21:48:11.000,21.798212,39.076683,51.52,-844,-18,16778,-10,8,-3,-1.06,0.41,-1.23,15972.429621068924,0.001443
608,1900-01-01 21:48:11.200,21.798195,39.076664,51.41,-1532,-860,15970,2,13,2,-1.04,0.44,-1.31,15972.429621068924,0.002724
609,1900-01-01 21:48:11.300,21.798187,39.076653,51.27,794,-904,13484,-60,-6,7,-1.06,0.51,-1.4,15993.635484154314,0.001443
610,1900-01-01 21:48:11.400,21.79818,39.076641,51.17,1050,80,18068,-11,12,4,-1.09,0.37,-1.64,16005.225771603473,0.001463
611,1900-01-01 21:48:11.500,21.798172,39.07663,51.13,126,-1332,14746,-27,-9,5,-1.1,0.44,-1.8,16765.624831780056,0.001443
612,1900-01-01 21:48:11.700,21.798155,39.076611,51.13,556,-1440,20718,19,42,4,-1.13,0.48,-1.93,17597.517324895576,0.002724
613,1900-01-01 21:48:11.800,21.798147,39.076599,50.9,8,-678,16732,-8,15,2,-1.18,0.25,-1.88,16745.732949023164,0.001525
614,1900-01-01 21:48:11.900,21.79814,39.076588,50.73,-514,248,17584,4,21,6,-1.22,0.2,-1.9,17097.907942201582,0.001377
615,1900-01-01 21:48:12.100,21.798122,39.076565,50.71,-190,-362,13334,-18,-20,8,-1.26,0.18,-1.95,16743.043450938065,0.003106
616,1900-01-01 21:48:12.200,21.798115,39.076557,50.44,-368,-484,17090,-9,-16,6,-1.3,0.31,-2.03,17061.586678852585,0.001135
617,1900-01-01 21:48:12.300,21.798107,39.076546,50.53,-1224,-532,7846,-40,-38,10,-1.34,0.39,-2.13,16315.01198283348,0.001443
618,1900-01-01 21:48:12.400,21.7981,39.076534,50.52,-804,-32,17050,-2,4,7,-1.38,0.42,-2.17,16316.506488829034,0.001463
619,1900-01-01 21:48:12.500,21.79809,39.076523,50.52,-1038,-888,16288,26,2,9,-1.42,0.54,-2.25,16316.506488829034,0.001589
620,1900-01-01 21:48:12.600,21.798082,39.076515,50.47,-670,-1112,16140,6,-17,6,-1.46,0.59,-2.19,17068.132411016737,0.001214
621,1900-01-01 21:48:12.700,21.798075,39.076504,50.4,-518,-232,17580,5,-3,5,-1.49,0.57,-2.17,16609.490540049686,0.001377
622,1900-01-01 21:48:12.800,21.798067,39.076492,50.37,-240,-412,17414,10,-9,3,-1.52,0.52,-2.11,16768.867105442754,0.001525
623,1900-01-01 21:48:12.900,21.798059,39.076481,50.33,-246,-496,16594,20,2,4,-1.54,0.54,-2.08,17418.42553160302,0.001443
624,1900-01-01 21:48:13.000,21.79805,39.076473,50.24,-96,-306,16762,2,22,-2,-1.55,0.51,-1.93,16768.867105442754,0.001298
625,1900-01-01 21:48:13.100,21.798042,39.076462,50.18,-412,108,18158,2,-9,-13,-1.51,0.55,-1.77,16606.522694411375,0.001443
626,1900-01-01 21:48:13.200,21.798035,39.07645,50.18,-1226,-1364,14232,-8,-2,-11,-1.43,0.66,-1.67,14254.09709522143,0.001463
627,1900-01-01 21:48:13.300,21.798027,39.076439,50.14,-1182,-714,13860,-17,-7,-11,-1.36,0.72,-1.55,13951.523787744478,0.001443
628,1900-01-01 21:48:13.400,21.798019,39.076427,49.95,-732,154,13798,-39,-42,-3,-1.31,0.86,-1.58,13951.523787744478,0.001525
629,1900-01-01 21:48:13.500,21.798012,39.07642,49.79,-370,-1464,13914,-20,-21,11,-1.33,1.03,-1.77,13937.219665342152,0.001062
630,1900-01-01 21:48:13.600,21.798004,39.076408,49.83,774,-112,16364,0,26,4,-1.38,0.99,-1.81,13923.573391913442,0.001525
631,1900-01-01 21:48:13.700,21.797995,39.076397,49.66,-354,-1218,15888,-8,-25,2,-1.41,0.89,-1.86,15896.020256655438,0.001514
632,1900-01-01 21:48:13.800,21.797987,39.076389,49.52,-1050,-360,13592,-2,10,1,-1.41,0.96,-1.88,15896.020256655438,0.001214
633,1900-01-01 21:48:13.900,21.797979,39.076378,49.41,-64,-246,17480,19,24,-6,-1.39,0.91,-1.75,15897.16163344891,0.001443
634,1900-01-01 21:48:14.000,21.797972,39.076366,49.39,-402,-462,15310,-16,-20,-9,-1.35,0.83,-1.59,17486.352392651817,0.001463
635,1900-01-01 21:48:14.100,21.797964,39.076355,49.32,-720,46,19076,23,31,-11,-1.29,0.82,-1.5,17482.7883359606,0.001443
636,1900-01-01 21:48:14.200,21.797956,39.076347,49.24,6,-10,18606,20,10,-8,-1.24,0.66,-1.38,18515.38830270648,0.001214
637,1900-01-01 21:48:14.300,21.797949,39.076336,49.2,-312,-12,16386,5,-18,-9,-1.2,0.63,-1.29,18514.631727366334,0.001377
638,1900-01-01 21:48:14.400,21.797941,39.076324,48.97,-354,-430,18512,26,9,-11,-1.13,0.75,-1.21,17150.842311676708,0.001525
639,1900-01-01 21:48:14.500,21.797934,39.076317,48.82,34,26,13794,-4,-2,-10,-1.08,0.78,-1.1,16391.923621100726,0.001062
640,1900-01-01 21:48:14.600,21.797926,39.076305,48.75,-330,-708,17148,10,-10,-13,-1.01,0.77,-1.01,15614.924911763104,0.001525
641,1900-01-01 21:48:14.700,21.797918,39.076294,48.66,-610,-292,13942,9,10,-8,-0.95,0.8,-0.94,15609.887891974113,0.001443
642,1900-01-01 21:48:14.800,21.797911,39.076286,48.58,-190,-412,15606,-2,13,-8,-0.89,0.63,-0.73,15614.924911763104,0.001135
643,1900-01-01 21:48:14.900,21.797903,39.076275,48.55,92,-190,16948,-2,-15,-11,-0.83,0.58,-0.68,15609.887891974113,0.001443
644,1900-01-01 21:48:15.000,21.797895,39.076263,48.54,-718,-592,15510,-8,-24,-11,-0.74,0.79,-0.63,16865.074681127266,0.001525
645,1900-01-01 21:48:15.100,21.797888,39.076256,48.45,88,812,16862,-14,27,-12,-0.67,0.86,-0.6,16863.30003291171,0.001062
646,1900-01-01 21:48:15.200,21.79788,39.076244,48.42,-208,-260,19034,15,-5,-11,-0.6,0.85,-0.66,15512.428694437245,0.001525
647,1900-01-01 21:48:15.300,21.797873,39.076233,48.17,192,52,12868,-34,-24,-7,-0.52,0.87,-0.61,14570.585712317814,0.001377
648,1900-01-01 21:48:15.400,21.797865,39.076225,47.94,484,-968,14568,-7,19,-8,-0.47,0.79,-0.63,14580.243070676153,0.001214
649,1900-01-01 21:48:15.500,21.797857,39.076214,47.92,-1476,-560,10182,-5,64,-8,-0.41,0.59,-0.55,13592.575031979775,0.001443
650,1900-01-01 21:48:15.600,21.79785,39.076202,47.9,-1304,-782,19136,15,-3,-9,-0.32,0.58,-0.55,14594.60941580829,0.001463
651,1900-01-01 21:48:15.700,21.797844,39.076195,47.83,-680,490,13564,2,22,-8,-0.26,0.56,-0.49,15816.836851911952,0.000984
652,1900-01-01 21:48:15.800,21.797836,39.076183,47.8,548,82,15802,0,-18,-12,-0.19,0.42,-0.41,15811.250424934771,0.001525
653,1900-01-01 21:48:16.000,21.797821,39.076164,47.57,202,220,18110,-17,-17,-12,-0.12,0.51,-0.36,15804.673486029378,0.002575
654,1900-01-01 21:48:16.100,21.797813,39.076153,47.49,-494,222,15090,-15,-1,-9,-0.05,0.67,-0.45,15941.343230731845,0.001443
655,1900-01-01 21:48:16.200,21.797806,39.076145,47.43,-190,-476,15940,-21,15,-12,0.02,0.62,-0.5,15944.511908490646,0.001135
656,1900-01-01 21:48:16.300,21.797798,39.076134,47.37,-342,-164,18524,-5,2,-11,0.08,0.53,-0.56,15796.604571869235,0.001443
657,1900-01-01 21:48:16.400,21.797792,39.076122,47.32,-660,-466,15782,-24,-12,-9,0.14,0.53,-0.61,15950.772395091091,0.001407
658,1900-01-01 21:48:16.500,21.797785,39.076115,47.3,-780,-528,15044,-11,6,-8,0.19,0.6,-0.71,16598.068080352,0.001062
659,1900-01-01 21:48:16.600,21.797777,39.076103,47.21,34,-646,16606,2,18,-5,0.24,0.56,-0.77,16598.899722571976,0.001525
660,1900-01-01 21:48:16.700,21.79777,39.076092,47.14,30,194,16588,12,6,3,0.24,0.53,-0.94,16596.428169940664,0.001377
661,1900-01-01 21:48:16.800,21.797762,39.076084,47.19,-288,-1070,19474,15,20,13,0.17,0.52,-1.11,16600.601193932707,0.001214
662,1900-01-01 21:48:16.900,21.797756,39.076073,47.08,72,-482,13126,-13,9,14,0.07,0.47,-1.21,16604.08214867657,0.001317
663,1900-01-01 21:48:17.000,21.797749,39.076065,46.73,-626,-1050,15918,-7,-29,14,-0.05,0.46,-1.23,17348.06801923488,0.001135
664,1900-01-01 21:48:17.100,21.797741,39.076054,46.55,922,-730,17322,22,8,10,-0.12,0.45,-1.25,17339.86793490654,0.001443
665,1900-01-01 21:48:17.300,21.797728,39.076035,46.34,-294,-906,17940,13,-30,10,-0.18,0.47,-1.25,17636.670660870208,0.002437
666,1900-01-01 21:48:17.400,21.79772,39.076023,46.28,-516,-462,17614,4,-3,9,-0.25,0.54,-1.25,17625.01529077351,0.001525
667,1900-01-01 21:48:17.500,21.797712,39.076015,46.21,-846,0,18542,19,-23,4,-0.29,0.63,-1.3,17621.616157435732,0.001214
668,1900-01-01 21:48:17.600,21.797707,39.076004,46.11,-418,-306,15994,-8,26,8,-0.32,0.79,-1.32,16310.228815071847,0.001264
669,1900-01-01 21:48:17.700,21.797699,39.075996,46.12,-318,282,16096,-5,8,5,-0.37,0.75,-1.37,16310.228815071847,0.001214
670,1900-01-01 21:48:17.800,21.797691,39.075985,46.11,-10,-990,16302,6,13,6,-0.42,0.63,-1.45,16312.410122357764,0.001443
671,1900-01-01 21:48:17.900,21.797684,39.075974,46.16,-608,-780,16918,16,-19,8,-0.46,0.6,-1.53,16927.851960600317,0.001377
672,1900-01-01 21:48:18.000,21.797678,39.075966,46.07,-416,-408,18680,6,21,8,-0.5,0.69,-1.49,17623.569105036586,0.001062
673,1900-01-01 21:48:18.100,21.79767,39.075954,45.82,-174,-482,17620,-1,22,6,-0.56,0.54,-1.53,17623.569105036586,0.001525
674,1900-01-01 21:48:18.200,21.797663,39.075947,45.84,-30,-554,17614,1,2,2,-0.59,0.53,-1.59,17620.61917186794,0.001062
675,1900-01-01 21:48:18.300,21.797657,39.075935,45.76,212,-850,15802,26,83,6,-0.62,0.52,-1.51,15809.37784987126,0.001407
676,1900-01-01 21:48:18.500,21.797642,39.075916,45.11,-10,-336,14816,1,58,7,-0.65,0.11,-1.38,15451.68275625668,0.002575
677,1900-01-01 21:48:18.600,21.797636,39.075909,45.06,-152,-100,15448,39,-66,-5,-0.65,-0.05,-1.35,15451.24888156294,0.000984
678,1900-01-01 21:48:18.700,21.797628,39.075897,45.05,-860,94,11152,-15,-79,2,-0.64,0.42,-1.11,15462.538213372343,0.001525
679,1900-01-01 21:48:18.800,21.797621,39.07589,45.05,-1134,-278,15864,-19,-22,-2,-0.63,0.95,-1.07,15876.038422730024,0.001062
680,1900-01-01 21:48:18.900,21.797615,39.075878,45.04,-610,-350,17028,-21,28,-1,-0.61,1.04,-1.11,15878.157323820671,0.001407
681,1900-01-01 21:48:19.000,21.797607,39.075871,45.0,-260,254,17310,-12,30,2,-0.6,0.78,-1.17,15874.061988035703,0.001146
682,1900-01-01 21:48:19.100,21.797602,39.075859,44.81,310,-354,15340,4,-10,-3,-0.6,0.5,-1.24,17038.701476344962,0.001358
683,1900-01-01 21:48:19.200,21.797594,39.075851,44.71,-492,-268,15470,-8,-49,-5,-0.57,0.65,-1.21,15714.503619268411,0.001214
684,1900-01-01 21:48:19.400,21.797581,39.075832,44.73,-660,-520,19184,21,25,-3,-0.54,0.94,-1.19,15714.503619268411,0.002437
685,1900-01-01 21:48:19.500,21.797573,39.075821,44.64,-442,38,15706,-2,26,-1,-0.53,0.74,-1.05,15715.989437512359,0.001443
686,1900-01-01 21:48:19.600,21.797567,39.075813,44.61,140,148,18216,-18,4,-7,-0.52,0.62,-1.0,16563.2676727752,0.001062
687,1900-01-01 21:48:19.700,21.79756,39.075806,44.54,-732,-334,15134,-24,-13,-6,-0.48,0.74,-1.1,15706.05628412174,0.001062
688,1900-01-01 21:48:19.800,21.797552,39.075794,44.55,18,-708,16554,8,-10,-7,-0.4,0.86,-1.22,16557.180194707067,0.001525
689,1900-01-01 21:48:19.900,21.797546,39.075787,44.31,110,2426,14172,40,-7,-1,-0.38,0.84,-1.05,15155.156086296176,0.000984
690,1900-01-01 21:48:20.100,21.797533,39.075768,44.09,-738,-324,20322,23,6,2,-0.38,0.93,-0.92,16554.156698545536,0.002437
691,1900-01-01 21:48:20.200,21.797525,39.075756,44.07,-2442,1966,10768,-12,8,-20,-0.3,0.91,-0.73,17476.86791161391,0.001525
692,1900-01-01 21:48:20.300,21.79752,39.075748,43.99,2,72,17468,2,40,-10,-0.23,0.89,-0.65,17479.722652261964,0.000996
693,1900-01-01 21:48:20.400,21.797512,39.075737,43.87,-552,-458,18086,2,21,-3,-0.18,0.71,-0.63,15903.875879797351,0.001443
694,1900-01-01 21:48:20.500,21.797506,39.075729,43.87,-338,-602,14810,-14,-45,-12,-0.12,0.76,-0.75,17299.409816522642,0.001062
695,1900-01-01 21:48:20.600,21.797499,39.075718,43.85,-1050,-270,15892,-1,13,-11,-0.04,0.94,-0.79,15908.178148361301,0.001377
696,1900-01-01 21:48:20.700,21.797493,39.07571,43.81,322,192,17294,-11,-5,-11,0.06,0.92,-0.7,15906.35457922399,0.001062
697,1900-01-01 21:48:20.800,21.797485,39.075703,43.77,-818,-470,14478,-2,5,-8,0.12,0.94,-0.75,16953.901497885377,0.001146
698,1900-01-01 21:48:21.000,21.797472,39.075684,43.66,-526,-424,17912,3,1,-6,0.17,0.93,-0.77,17299.99329479639,0.002437
699,1900-01-01 21:48:21.100,21.797466,39.075672,43.49,166,-356,16942,-12,5,-2,0.19,1.06,-0.83,16948.1177715993,0.001407
700,1900-01-01 21:48:21.200,21.797459,39.075665,43.36,736,-506,19154,15,45,-5,0.22,0.85,-0.87,16948.1177715993,0.001062
701,1900-01-01 21:48:21.300,21.797453,39.075653,43.28,174,302,16716,3,-8,-8,0.26,0.75,-0.84,16948.735174047648,0.001407
702,1900-01-01 21:48:21.400,21.797447,39.075645,43.17,98,-448,16766,10,-13,-2,0.29,1.0,-0.88,16773.92011427263,0.001062
703,1900-01-01 21:48:21.500,21.79744,39.075638,43.07,-1050,-788,18030,3,14,-3,0.3,1.21,-0.92,16774.163347243284,0.001062
704,1900-01-01 21:48:21.700,21.797426,39.075619,42.93,-204,-514,16600,-3,21,9,0.28,1.15,-1.06,16775.702787066777,0.002504
705,1900-01-01 21:48:21.800,21.797421,39.075607,42.86,272,-562,17112,-11,31,11,0.22,0.89,-1.19,16612.164819793958,0.001358
706,1900-01-01 21:48:21.900,21.797415,39.0756,42.65,320,-1012,16044,-12,-23,10,0.13,0.75,-1.34,16054.092313176725,0.000984
707,1900-01-01 21:48:22.000,21.797407,39.075592,42.55,-618,-602,16022,1,-30,7,0.08,0.96,-1.44,16032.106162323153,0.001214
708,1900-01-01 21:48:22.100,21.797401,39.075581,42.62,-90,-492,15024,2,22,2,0.06,0.99,-1.42,16030.678338735388,0.001317
709,1900-01-01 21:48:22.200,21.797394,39.075573,42.59,-190,146,15894,-1,14,-6,0.09,0.76,-1.29,15895.960115702354,0.001135
710,1900-01-01 21:48:22.300,21.797388,39.075562,42.5,-226,-106,17528,-14,-10,-10,0.16,0.79,-1.13,15895.631349524938,0.001317
711,1900-01-01 21:48:22.400,21.797382,39.075554,42.47,-482,-28,14652,10,-8,-9,0.22,0.85,-1.15,16387.58237202791,0.001062
712,1900-01-01 21:48:22.600,21.797369,39.075535,41.81,-524,60,16386,10,5,-10,0.28,0.91,-1.07,16393.111480130916,0.002437
713,1900-01-01 21:48:22.700,21.797363,39.075527,41.93,-124,-262,17542,11,4,-10,0.34,0.91,-0.98,16393.111480130916,0.001062
714,1900-01-01 21:48:22.800,21.797356,39.07552,41.85,-638,348,15396,15,-2,-15,0.43,0.95,-0.84,16394.486024270478,0.001062
715,1900-01-01 21:48:22.900,21.79735,39.075508,41.79,-404,-282,17330,12,-1,-18,0.55,1.08,-0.64,16014.809521190065,0.001407
716,1900-01-01 21:48:23.000,21.797342,39.0755,41.71,-828,336,16006,10,19,-18,0.69,1.07,-0.45,15412.876305219606,0.001214
717,1900-01-01 21:48:23.100,21.797337,39.075493,41.58,-462,-418,15382,-4,-27,-19,0.86,1.18,-0.34,15391.081313539995,0.000912
718,1900-01-01 21:48:23.300,21.797325,39.075474,40.84,-1180,504,15286,-6,-23,-20,0.98,1.46,-0.24,15402.76507644001,0.002372
719,1900-01-01 21:48:23.400,21.797319,39.075466,40.8,-486,208,14620,-20,11,-15,1.09,1.66,-0.21,15391.081313539995,0.001062
720,1900-01-01 21:48:23.500,21.797312,39.075459,40.68,-772,-294,16264,-4,-3,-10,1.17,1.7,-0.26,16274.289170344737,0.001062
721,1900-01-01 21:48:23.600,21.797306,39.075447,40.58,-328,314,17480,8,-25,-12,1.24,1.76,-0.31,16269.95709889857,0.001407
722,1900-01-01 21:48:23.700,21.7973,39.075439,40.38,-366,396,18726,-1,-24,-8,1.29,1.98,-0.38,17318.843032951132,0.001062
723,1900-01-01 21:48:23.800,21.797295,39.075432,40.26,-388,-554,14224,-20,3,-7,1.34,2.18,-0.41,17316.749464030483,0.000912
724,1900-01-01 21:48:23.900,21.797289,39.075424,40.12,-868,-434,17312,1,25,-7,1.38,2.17,-0.4,17329.518977744305,0.001062
725,1900-01-01 21:48:24.000,21.797283,39.075413,39.93,-1022,118,14652,-23,-7,-6,1.43,2.15,-0.43,17329.518977744305,0.001317
726,1900-01-01 21:48:24.100,21.797277,39.075405,39.77,-778,-40,18118,8,-2,-9,1.49,2.27,-0.5,17334.148147515065,0.001062
727,1900-01-01 21:48:24.200,21.797272,39.075397,39.57,-336,240,18836,16,7,-8,1.56,2.34,-0.46,17237.605634194093,0.000996
728,1900-01-01 21:48:24.300,21.797266,39.07539,39.44,-1178,578,17210,10,-7,-9,1.61,2.31,-0.44,17236.565551176373,0.000984
729,1900-01-01 21:48:24.400,21.79726,39.075378,39.22,-968,-36,16014,7,-15,-12,1.67,2.46,-0.48,16496.460347601846,0.001407
730,1900-01-01 21:48:24.600,21.797249,39.075363,38.35,-956,34,13842,-15,7,-6,1.73,2.56,-0.46,16393.390985394082,0.001973
731,1900-01-01 21:48:24.700,21.797243,39.075356,37.9,-1120,-444,16468,-6,11,-3,1.75,2.51,-0.49,16384.659166427602,0.000984
732,1900-01-01 21:48:24.800,21.797237,39.075348,37.8,-1106,-874,16356,1,-15,-1,1.76,2.56,-0.58,16498.13577347453,0.001062
733,1900-01-01 21:48:24.900,21.797234,39.075336,37.76,-622,184,20690,14,-7,1,1.75,2.72,-0.65,16507.506898378084,0.001283
734,1900-01-01 21:48:25.000,21.797228,39.075329,37.77,-704,-282,17804,1,2,1,1.74,2.86,-0.69,16387.639976518887,0.000984
735,1900-01-01 21:48:25.100,21.797222,39.075321,37.71,-2166,-16,16206,-18,35,6,1.72,2.91,-0.73,17832.736750145785,0.001062
736,1900-01-01 21:48:25.200,21.797216,39.075314,37.3,-978,-594,13210,-45,5,3,1.72,2.89,-0.83,17360.930159412543,0.000984
737,1900-01-01 21:48:25.300,21.797211,39.075306,37.1,-1064,-260,18064,11,33,3,1.73,2.85,-0.95,16320.193503754788,0.000996
738,1900-01-01 21:48:25.400,21.797207,39.075298,37.03,-1866,-482,17326,2,0,3,1.71,2.89,-0.97,16113.079655981348,0.000938
739,1900-01-01 21:48:25.500,21.797201,39.075287,37.01,-2058,-780,16010,14,4,3,1.69,3.01,-0.99,16114.603811450035,0.001317
740,1900-01-01 21:48:25.600,21.797195,39.075279,36.95,-1720,-710,14058,-6,26,5,1.65,3.08,-0.99,16130.8403996816,0.001062
741,1900-01-01 21:48:25.800,21.797186,39.075264,36.39,-1236,-634,14572,7,1,7,1.62,3.1,-1.04,16117.772798994283,0.001844
742,1900-01-01 21:48:25.900,21.79718,39.075256,35.58,-2426,-506,16398,-4,-56,12,1.56,3.46,-1.11,16503.239197200044,0.001062
743,1900-01-01 21:48:26.000,21.797174,39.075249,35.23,-1718,-896,18700,-7,-30,18,1.48,3.96,-1.26,16643.391240970093,0.000984
744,1900-01-01 21:48:26.100,21.797171,39.075241,34.86,-1974,-862,16630,-6,5,22,1.37,4.33,-1.45,16645.18681180839,0.000891
745,1900-01-01 21:48:26.200,21.797165,39.075233,34.38,-1848,-978,16518,-13,19,26,1.22,4.4,-1.61,16642.820193705153,0.001062
746,1900-01-01 21:48:26.300,21.797161,39.075226,33.74,-1218,-1286,15472,3,16,24,1.07,4.45,-1.81,16644.007450130513,0.000849
747,1900-01-01 21:48:26.400,21.797155,39.075218,33.35,-1784,-998,14548,-29,-2,26,0.91,4.57,-1.94,15606.455202896012,0.001062
748,1900-01-01 21:48:26.500,21.797152,39.075214,33.21,-1574,-1284,16678,1,-2,23,0.76,4.67,-2.15,15510.532808385404,0.000531
749,1900-01-01 21:48:26.600,21.797146,39.075207,33.11,-2064,-888,15354,5,-14,23,0.61,4.79,-2.26,14848.321655998701,0.000984
750,1900-01-01 21:48:26.700,21.79714,39.075199,33.01,-2398,-1362,14648,4,-2,24,0.46,4.9,-2.34,15593.087442838252,0.001062
751,1900-01-01 21:48:26.800,21.797136,39.075191,32.72,-2658,-1478,14412,-4,-31,28,0.3,5.17,-2.47,15594.889675788027,0.000938
752,1900-01-01 21:48:26.900,21.797131,39.075184,32.51,-3320,-354,15796,17,-7,22,0.12,5.68,-2.44,14946.496847087614,0.000912
753,1900-01-01 21:48:27.000,21.797127,39.075176,32.07,-2582,-310,18010,1,-3,20,-0.01,6.07,-2.37,16040.312216412747,0.000938
754,1900-01-01 21:48:27.200,21.797117,39.075165,30.69,-3074,-1330,12846,4,-9,14,-0.1,6.31,-2.35,17149.46693049087,0.001589
755,1900-01-01 21:48:27.300,21.797113,39.075157,29.46,-2740,-520,16868,10,-17,10,-0.16,6.61,-2.27,18245.489853659725,0.000938
756,1900-01-01 21:48:27.400,21.797108,39.075153,28.64,-3208,96,17982,26,10,-8,-0.19,7.04,-2.0,17868.591550539175,0.000693
757,1900-01-01 21:48:27.500,21.797104,39.075146,28.26,-3576,1026,18444,14,6,-24,-0.11,7.39,-1.58,17967.374209939528,0.000849
758,1900-01-01 21:48:27.600,21.7971,39.075142,27.89,-3846,1742,17578,38,-13,-67,0.18,7.88,-0.99,18450.09636831201,0.000607
759,1900-01-01 21:48:27.700,21.797096,39.075134,27.85,-4262,1504,15846,52,-14,-116,0.72,8.36,-0.16,18104.299820760814,0.000938
760,1900-01-01 21:48:27.800,21.797092,39.07513,27.67,-3968,3150,19970,43,20,-162,1.59,8.84,1.07,18287.7748236356,0.000607
761,1900-01-01 21:48:27.900,21.797089,39.075123,27.44,-4660,4570,17376,12,19,-214,2.79,9.2,2.49,18467.08184852171,0.000796
762,1900-01-01 21:48:28.000,21.797083,39.075119,27.13,-3764,4492,17572,38,17,-273,4.36,9.4,3.92,18512.232820489266,0.000785
763,1900-01-01 21:48:28.100,21.797079,39.075111,26.88,-4386,4558,17398,34,7,-326,6.32,9.54,5.41,18501.657547365856,0.000938
764,1900-01-01 21:48:28.200,21.797075,39.075108,26.73,-4558,5010,16954,23,-13,-376,8.6,9.86,6.99,18114.126421111232,0.000542
765,1900-01-01 21:48:28.300,21.797071,39.075104,26.51,-4416,4716,16966,-1,5,-408,11.88,10.16,8.67,18115.642522416918,0.000607
766,1900-01-01 21:48:28.500,21.797064,39.075092,25.93,-4662,4072,16828,-14,-1,-413,14.34,10.2,9.47,18178.397509131548,0.001463
767,1900-01-01 21:48:28.600,21.79706,39.075085,25.37,-4468,4004,15682,8,11,-441,16.88,10.11,10.31,18204.717410605415,0.000849
768,1900-01-01 21:48:28.700,21.797058,39.075081,24.89,-4618,6212,18762,6,11,-483,19.59,9.93,11.45,17918.94784857638,0.000469
769,1900-01-01 21:48:28.800,21.797054,39.075077,24.09,-4814,5360,17318,10,32,-511,22.86,9.52,12.52,17995.560452511614,0.000607
770,1900-01-01 21:48:28.900,21.797052,39.075069,23.52,-3684,3786,15530,-29,27,-528,26.31,8.98,13.24,18134.25984152648,0.000855
771,1900-01-01 21:48:29.000,21.797049,39.075066,22.92,-3592,3920,16966,13,29,-533,30.15,8.23,13.67,18105.76637427977,0.000455
772,1900-01-01 21:48:29.100,21.797047,39.075062,22.49,-3280,3544,17906,-14,7,-529,33.67,7.67,14.0,17700.49592525588,0.000469
773,1900-01-01 21:48:29.200,21.797045,39.075058,21.96,-3826,3274,18230,-10,21,-513,38.43,7.09,14.12,17725.975290516457,0.000469
774,1900-01-01 21:48:29.400,21.797039,39.075047,21.13,-3420,3226,15458,-21,23,-526,41.57,6.55,14.13,17690.68116269128,0.001317
775,1900-01-01 21:48:29.500,21.797037,39.075043,20.32,-2650,2528,17082,-11,28,-531,44.79,5.93,14.17,17109.948684902593,0.000469
776,1900-01-01 21:48:29.600,21.797035,39.075039,19.46,-2618,2456,16472,-16,21,-509,48.91,5.12,13.95,16880.261727828747,0.000469
777,1900-01-01 21:48:29.700,21.797035,39.075035,18.56,-3194,2092,16618,-33,23,-484,52.54,4.48,13.5,16814.450570863148,0.000413
778,1900-01-01 21:48:29.800,21.797033,39.075031,17.52,-2754,1344,13488,-22,27,-463,56.89,3.81,12.75,16688.049137032165,0.000469
779,1900-01-01 21:48:30.000,21.797033,39.075024,15.59,-2152,1616,14456,-10,19,-446,59.93,3.32,12.27,16685.81601241006,0.000723
780,1900-01-01 21:48:30.100,21.797033,39.075024,14.0,-2082,936,16402,-22,8,-416,62.32,3.04,11.81,15623.159475599037,0.0
781,1900-01-01 21:48:30.200,21.797035,39.07502,12.8,-2778,228,16420,-20,20,-377,65.01,2.89,10.97,16440.014355224877,0.000469
782,1900-01-01 21:48:30.300,21.797037,39.075016,12.01,-3160,-652,15350,-17,10,-325,67.6,3.01,9.86,16712.423761980186,0.000469
783,1900-01-01 21:48:30.400,21.797039,39.075016,10.96,-3556,-900,16202,-19,11,-279,69.61,3.3,8.87,16772.505716201144,0.000222
784,1900-01-01 21:48:30.500,21.797043,39.075016,9.69,-3750,-706,16398,-11,13,-231,71.3,3.76,7.89,16823.96730857499,0.000445
785,1900-01-01 21:48:30.600,21.797045,39.075016,8.62,-3774,-1144,16376,-22,7,-185,72.67,4.29,6.96,16844.14402693114,0.000222
786,1900-01-01 21:48:30.700,21.79705,39.075016,7.88,-4280,-1688,16904,-6,3,-130,73.96,5.18,5.64,16977.460823103083,0.000556
787,1900-01-01 21:48:30.900,21.797054,39.075012,7.61,-4452,-1522,16194,-2,5,-94,74.59,5.9,4.82,16908.142062331983,0.000607
788,1900-01-01 21:48:31.000,21.797056,39.075012,7.52,-4540,-1320,16258,-2,3,-54,75.04,6.68,4.05,16908.142062331983,0.000222
789,1900-01-01 21:48:31.100,21.797058,39.075012,7.38,-4602,-1242,16238,-3,3,-23,75.23,7.45,3.3,16902.23156864205,0.000222
790,1900-01-01 21:48:31.200,21.79706,39.075012,7.24,-2078,-982,16578,1,7,7,75.22,8.06,2.57,16419.652006056644,0.000222
791,1900-01-01 21:48:31.300,21.797062,39.075008,7.05,1424,476,17498,37,30,-1,75.11,7.07,2.39,16238.745148563667,0.000469
792,1900-01-01 21:48:31.400,21.797064,39.075008,6.8,678,384,15544,0,16,3,75.07,5.58,2.44,16592.573157892057,0.000222
793,1900-01-01 21:48:31.600,21.797066,39.075008,6.13,-22,154,16072,-12,-4,2,75.03,5.18,2.28,16648.524138793804,0.000222
794,1900-01-01 21:48:31.700,21.797066,39.075008,0.0,790,-328,16650,-5,-1,-4,75.02,4.71,2.04,16123.926817000876,0.0
795,1900-01-01 21:48:31.800,21.797066,39.075008,0.0,196,-80,16634,1,0,5,74.98,4.19,1.76,16627.868414201504,0.0
796,1900-01-01 21:48:31.900,21.797066,39.075008,0.0,142,168,16122,3,-2,-2,74.97,3.89,1.67,16627.647939501247,0.0
797,1900-01-01 21:48:32.000,21.797068,39.075008,0.0,520,162,16626,-2,1,-1,74.97,3.49,1.61,16521.316775608415,0.000222
798,1900-01-01 21:48:32.100,21.797068,39.075008,0.0,220,-406,16250,-3,-1,2,74.94,3.12,1.44,16433.687352508565,0.0
799,1900-01-01 21:48:32.200,21.797068,39.075008,0.0,202,52,16520,3,1,-2,74.94,2.85,1.29,16433.554941034516,0.0
800,1900-01-01 21:48:32.300,21.797068,39.075008,0.0,482,84,16432,-1,1,1,74.93,2.53,1.22,16433.47279183557,0.0
801,1900-01-01 21:48:32.400,21.797068,39.075008,0.0,206,-16,16230,-3,-3,0,74.91,2.24,1.14,16434.477904697793,0.0
802,1900-01-01 21:48:32.500,21.797068,39.075008,0.0,284,-2,16588,-2,5,0,74.92,2.01,1.03,16434.8356852145,0.0
803,1900-01-01 21:48:32.600,21.797068,39.075008,0.0,304,28,15976,-1,0,2,74.91,1.77,0.94,16318.495518888989,0.0
804,1900-01-01 21:48:32.700,21.79707,39.075008,0.0,342,74,16560,-2,-1,-1,74.91,1.55,0.87,16562.81377061277,0.000222
805,1900-01-01 21:48:32.800,21.79707,39.075008,0.0,182,38,16316,-1,2,-1,74.91,1.36,0.81,16318.855842245805,0.0
806,1900-01-01 21:48:32.900,21.79707,39.075008,0.0,478,-36,17628,2,11,0,74.9,1.16,0.73,16475.581082316945,0.0
807,1900-01-01 21:48:33.000,21.79707,39.075008,0.0,228,-70,15848,-2,-2,0,74.9,0.99,0.68,16317.632671438587,0.0
808,1900-01-01 21:48:33.100,21.79707,39.075008,0.0,402,-32,16472,-1,1,1,74.89,0.83,0.63,16476.42194167168,0.0
809,1900-01-01 21:48:33.200,21.79707,39.075008,0.0,214,-36,16016,-1,1,0,74.89,0.68,0.58,16117.672908953078,0.0
810,1900-01-01 21:48:33.300,21.79707,39.075012,0.0,380,100,16696,-3,1,0,74.89,0.55,0.54,16476.382612697485,0.000413
811,1900-01-01 21:48:33.400,21.79707,39.075012,0.0,230,0,16116,-1,-1,2,74.88,0.41,0.49,16146.191253667224,0.0
812,1900-01-01 21:48:33.500,21.797071,39.075012,0.0,406,144,16610,-2,1,1,74.88,0.3,0.44,16597.725506827734,0.000111
813,1900-01-01 21:48:33.600,21.797071,39.075012,0.0,266,-26,16144,-1,-1,0,74.88,0.19,0.41,16146.56867572798,0.0
814,1900-01-01 21:48:33.700,21.797071,39.075012,0.0,350,34,16594,-4,1,0,74.87,0.09,0.37,16563.73315409301,0.0
815,1900-01-01 21:48:33.800,21.797071,39.075012,0.0,288,-112,16110,1,0,-1,74.88,0.0,0.33,16437.74716924433,0.0
816,1900-01-01 21:48:33.900,21.797071,39.075012,0.0,422,64,16560,-1,1,1,74.87,-0.09,0.3,16513.713816098425,0.0
817,1900-01-01 21:48:34.000,21.797071,39.075012,0.0,420,-106,16434,-1,2,-1,74.87,-0.17,0.28,16437.11045165786,0.0
818,1900-01-01 21:48:34.100,21.797071,39.075012,0.0,304,12,16510,-2,-2,1,74.86,-0.24,0.25,16505.30363246917,0.0
819,1900-01-01 21:48:34.200,21.797071,39.075012,0.0,312,-70,16316,0,0,0,74.86,-0.31,0.22,16437.437513189212,0.0
820,1900-01-01 21:48:34.300,21.797071,39.075012,0.0,330,120,16502,-2,-1,0,74.86,-0.38,0.19,16496.954991755298,0.0
821,1900-01-01 21:48:34.400,21.797071,39.075012,0.0,338,-64,16414,-2,-2,1,74.86,-0.43,0.17,16441.356878311475,0.0
822,1900-01-01 21:48:34.500,21.797073,39.075012,0.0,278,108,16494,-2,0,0,74.86,-0.47,0.16,16463.582234738587,0.000222
823,1900-01-01 21:48:34.600,21.797073,39.075012,0.0,326,-130,16438,0,1,0,74.86,-0.51,0.15,16441.20019949882,0.0
824,1900-01-01 21:48:34.700,21.797073,39.075012,0.0,282,134,16460,-2,-1,1,74.86,-0.55,0.12,16462.532247500687,0.0
825,1900-01-01 21:48:34.800,21.797073,39.075012,0.0,318,-132,16394,0,0,0,74.86,-0.6,0.12,16441.512704127927,0.0
826,1900-01-01 21:48:34.900,21.797073,39.075012,0.0,270,62,16464,-1,-2,1,74.86,-0.65,0.1,16397.12401611941,0.0
827,1900-01-01 21:48:35.000,21.797073,39.075012,0.0,314,-160,16294,0,2,-1,74.86,-0.68,0.09,16397.61519246015,0.0
828,1900-01-01 21:48:35.100,21.797075,39.075012,0.0,346,92,16376,-1,1,1,74.85,-0.71,0.07,16467.752002018977,0.000222
829,1900-01-01 21:48:35.200,21.797075,39.075012,0.0,368,-144,16500,-1,-1,0,74.85,-0.74,0.07,16379.655918241995,0.0
830,1900-01-01 21:48:35.300,21.797075,39.075012,0.0,352,148,16510,0,-1,0,74.85,-0.77,0.05,16504.01066407799,0.0
831,1900-01-01 21:48:35.400,21.797075,39.075012,0.0,296,-6,16232,0,1,0,74.85,-0.8,0.05,16503.75533022712,0.0
832,1900-01-01 21:48:35.500,21.797075,39.075012,0.0,370,102,16522,-2,-1,-1,74.85,-0.82,0.03,16513.753056165035,0.0
833,1900-01-01 21:48:35.600,21.797075,39.075012,0.0,300,-120,16242,-1,1,0,74.84,-0.85,0.03,16245.024099705115,0.0
834,1900-01-01 21:48:35.700,21.797075,39.075012,0.0,442,-30,16742,-3,1,0,74.84,-0.87,0.02,16472.183340407548,0.0
835,1900-01-01 21:48:35.800,21.797075,39.075012,0.0,312,-176,15980,1,2,-1,74.84,-0.89,0.01,16245.024099705115,0.0
836,1900-01-01 21:48:35.900,21.797075,39.075012,0.0,370,126,16468,-3,2,0,74.84,-0.91,0.01,16227.020552153128,0.0
837,1900-01-01 21:48:36.000,21.797077,39.075016,0.0,270,26,16224,1,2,1,74.84,-0.93,0.01,16227.020552153128,0.000469
838,1900-01-01 21:48:36.100,21.797077,39.075016,0.0,212,32,16122,-2,1,1,74.83,-0.94,-0.0,16226.27806984707,0.0
839,1900-01-01 21:48:36.200,21.797077,39.075016,0.0,376,-22,16612,-1,0,0,74.83,-0.96,-0.02,16226.27806984707,0.0
840,1900-01-01 21:48:36.300,21.797077,39.075016,0.0,194,38,15982,0,-2,2,74.83,-0.97,-0.02,16140.857226306167,0.0
841,1900-01-01 21:48:36.400,21.797077,39.075016,0.0,338,172,16468,-3,-2,1,74.83,-0.99,-0.03,16471.482993343376,0.0
842,1900-01-01 21:48:36.500,21.797077,39.075016,0.0,302,-40,16138,0,2,-1,74.83,-1.0,-0.03,16140.870236762328,0.0
843,1900-01-01 21:48:36.600,21.797077,39.075016,0.0,390,-44,16638,-2,0,1,74.83,-1.01,-0.04,16471.563495916227,0.0
844,1900-01-01 21:48:36.700,21.797077,39.075016,0.0,248,56,16116,-1,2,0,74.82,-1.02,-0.04,16140.875069214804,0.0
845,1900-01-01 21:48:36.800,21.797077,39.075016,0.0,370,130,16472,-2,0,0,74.82,-1.03,-0.05,16120.080396821848,0.0
846,1900-01-01 21:48:36.900,21.797079,39.075016,0.0,46,-96,15386,-28,-195,5,74.83,-1.11,-0.03,15942.656867661675,0.000222
847,1900-01-01 21:48:37.000,21.797079,39.075016,0.0,360,-198,15762,-1,5,1,74.82,-1.07,-0.04,15942.656867661675,0.0
848,1900-01-01 21:48:37.100,21.797079,39.075016,0.0,282,-72,15940,0,1,1,74.82,-1.07,-0.05,15942.656867661675,0.0
849,1900-01-01 21:48:37.200,21.797079,39.075016,0.0,252,-50,16010,-2,-1,0,74.82,-1.09,-0.05,16012.632388211503,0.0
850,1900-01-01 21:48:37.400,21.797079,39.075016,0.0,286,96,16586,-1,-1,0,74.8,-1.09,-0.06,16278.518605819143,0.0
851,1900-01-01 21:48:37.500,21.797079,39.075016,0.0,438,50,16530,-3,0,0,74.8,-1.1,-0.05,16483.066947628406,0.0
852,1900-01-01 21:48:37.700,21.797079,39.075016,0.0,314,-14,16276,0,2,0,74.8,-1.1,-0.05,16534.35139338704,0.0
853,1900-01-01 21:48:37.800,21.797079,39.075016,0.0,468,86,16480,-2,-1,1,74.8,-1.11,-0.06,16534.2817201111,0.0
854,1900-01-01 21:48:37.900,21.797079,39.075016,0.0,376,-64,16746,-2,-1,0,74.8,-1.13,-0.06,16484.203954088895,0.0
855,1900-01-01 21:48:38.100,21.797079,39.075016,0.0,372,-68,16686,-1,2,1,74.79,-1.13,-0.05,16690.23774546067,0.0
856,1900-01-01 21:48:38.200,21.797079,39.075016,0.0,234,66,16144,-1,0,1,74.79,-1.14,-0.07,16690.358534195722,0.0
857,1900-01-01 21:48:38.400,21.797079,39.075016,0.0,416,8,16738,-2,1,1,74.79,-1.14,-0.07,16572.87132635742,0.0
858,1900-01-01 21:48:38.500,21.797079,39.075016,0.0,420,-94,16568,-2,1,1,74.78,-1.14,-0.06,16425.04343982079,0.0
859,1900-01-01 21:48:38.600,21.797081,39.075016,0.0,396,-172,16420,-1,0,0,74.78,-1.14,-0.06,16457.033633070085,0.000222
860,1900-01-01 21:48:38.700,21.797081,39.075016,0.0,380,-172,16338,0,2,0,74.78,-1.15,-0.07,16456.955733063147,0.0
861,1900-01-01 21:48:38.900,21.797081,39.075016,0.0,350,138,16452,0,-1,1,74.78,-1.16,-0.07,16424.7783546689,0.0
862,1900-01-01 21:48:39.000,21.797081,39.07502,0.0,388,-112,16624,0,1,1,74.77,-1.16,-0.07,16439.940754151154,0.000413
863,1900-01-01 21:48:39.100,21.797081,39.07502,0.0,256,84,16080,-1,0,0,74.77,-1.17,-0.07,16439.940754151154,0.0
864,1900-01-01 21:48:39.200,21.797081,39.07502,0.0,272,142,16436,-1,-2,1,74.77,-1.17,-0.07,16440.532473128722,0.0
865,1900-01-01 21:48:39.300,21.797081,39.07502,0.0,404,4,16406,-4,-1,1,74.77,-1.16,-0.06,16408.255117470595,0.0
866,1900-01-01 21:48:39.400,21.797081,39.07502,0.0,386,-210,16640,-1,0,0,74.76,-1.17,-0.08,16440.53794740306,0.0
867,1900-01-01 21:48:39.500,21.797081,39.07502,0.0,248,-142,15960,0,4,0,74.76,-1.17,-0.07,16410.936231671854,0.0
868,1900-01-01 21:48:39.700,21.797081,39.07502,0.0,402,-14,16718,-3,0,0,74.76,-1.17,-0.08,16345.150962900281,0.0
869,1900-01-01 21:48:39.800,21.797081,39.07502,0.0,300,-114,16342,-1,2,-1,74.76,-1.18,-0.08,16218.780841974529,0.0
870,1900-01-01 21:48:39.900,21.797081,39.07502,0.0,206,0,15892,-1,0,1,74.75,-1.16,-0.07,16341.495892359426,0.0
871,1900-01-01 21:48:40.000,21.797081,39.07502,0.0,338,108,16216,-3,-1,1,74.75,-1.18,-0.08,16340.754082966918,0.0
872,1900-01-01 21:48:40.100,21.797081,39.07502,0.0,378,160,16338,-1,-1,0,74.75,-1.16,-0.09,16341.766244809647,0.0
873,1900-01-01 21:48:40.300,21.797081,39.07502,0.0,274,-144,16650,-1,-6,0,74.73,-1.16,-0.08,16522.546292869025,0.0
874,1900-01-01 21:48:40.400,21.797081,39.07502,0.0,376,94,16518,-3,-7,2,74.73,-1.16,-0.09,16654.297943774152,0.0
875,1900-01-01 21:48:40.500,21.797081,39.07502,0.0,414,16,16670,-2,3,1,74.73,-1.19,-0.09,16654.367955584505,0.0
876,1900-01-01 21:48:40.600,21.797081,39.07502,0.0,388,-64,16768,-1,3,1,74.72,-1.18,-0.09,16522.37380039563,0.0
877,1900-01-01 21:48:40.700,21.797081,39.07502,0.0,338,-132,16104,-1,2,0,74.72,-1.18,-0.08,16280.48512790697,0.0
878,1900-01-01 21:48:40.800,21.797083,39.07502,0.0,246,-56,15870,-1,-2,1,74.72,-1.18,-0.09,16279.605523476299,0.000222
879,1900-01-01 21:48:41.000,21.797083,39.07502,0.0,378,62,16276,-3,1,0,74.72,-1.19,-0.08,16278.608908626069,0.0
880,1900-01-01 21:48:41.100,21.797083,39.07502,0.0,286,194,16386,-1,0,1,74.72,-1.19,-0.08,16388.578217771057,0.0
881,1900-01-01 21:48:41.200,21.797083,39.07502,0.0,280,-158,16434,-1,-3,0,74.71,-1.18,-0.09,16388.578217771057,0.0
882,1900-01-01 21:48:41.300,21.797083,39.07502,0.0,374,52,16596,0,2,0,74.71,-1.2,-0.09,16388.571993923084,0.0
883,1900-01-01 21:48:41.400,21.797083,39.07502,0.0,252,-152,16110,-2,-1,1,74.71,-1.18,-0.08,16437.588752612104,0.0
884,1900-01-01 21:48:41.500,21.797083,39.07502,0.0,524,50,16220,-3,-3,0,74.71,-1.16,-0.09,16222.93635566632,0.0
885,1900-01-01 21:48:41.600,21.797083,39.07502,0.0,308,-202,16660,4,1,-1,74.71,-1.2,-0.08,16222.93635566632,0.0
886,1900-01-01 21:48:41.700,21.797083,39.07502,0.0,196,20,16166,-4,1,1,74.7,-1.17,-0.08,16229.49968421701,0.0
887,1900-01-01 21:48:41.800,21.797083,39.07502,0.0,440,192,16224,-2,2,0,74.7,-1.16,-0.07,16278.92392021045,0.0
888,1900-01-01 21:48:41.900,21.797083,39.07502,0.0,422,-18,16574,-2,-1,0,74.7,-1.19,-0.08,16281.47978532664,0.0
889,1900-01-01 21:48:42.000,21.797083,39.075024,0.0,212,-150,16276,-3,-1,1,74.7,-1.16,-0.09,16579.39516387736,0.000413
890,1900-01-01 21:48:42.100,21.797083,39.075024,0.0,424,-28,16868,1,2,-1,74.7,-1.16,-0.09,16725.39876953611,0.0
891,1900-01-01 21:48:42.200,21.797083,39.075024,0.0,336,-172,16722,-1,0,2,74.69,-1.17,-0.09,16849.373756908593,0.0
892,1900-01-01 21:48:42.300,21.797083,39.075024,0.0,296,-16,16900,1,3,-1,74.69,-1.16,-0.1,16849.373756908593,0.0
893,1900-01-01 21:48:42.400,21.797083,39.075024,0.0,412,60,16846,2,2,0,74.69,-1.17,-0.09,16725.40223731555,0.0
894,1900-01-01 21:48:42.500,21.797083,39.075024,0.0,248,-94,16218,-4,-2,1,74.69,-1.17,-0.07,16700.979013219556,0.0
895,1900-01-01 21:48:42.600,21.797083,39.075024,0.0,336,-30,16370,-4,1,0,74.69,-1.15,-0.08,16373.580915609145,0.0
896,1900-01-01 21:48:42.700,21.797083,39.075024,0.0,314,-66,16698,0,0,1,74.68,-1.16,-0.09,16373.247692501325,0.0
897,1900-01-01 21:48:42.800,21.797083,39.075024,0.0,380,-88,16056,-3,3,-1,74.69,-1.16,-0.08,16373.286169856068,0.0
898,1900-01-01 21:48:42.900,21.797083,39.075024,0.0,242,-194,16426,-3,1,1,74.68,-1.17,-0.08,16429.274968786664,0.0
899,1900-01-01 21:48:43.000,21.797083,39.075024,0.0,316,-124,16314,-3,1,1,74.68,-1.15,-0.09,16430.049786899614,0.0
900,1900-01-01 21:48:43.100,21.797083,39.075024,0.0,392,0,16534,1,-1,0,74.68,-1.17,-0.1,16439.811799409385,0.0
901,1900-01-01 21:48:43.200,21.797083,39.075024,0.0,354,110,16892,-1,3,0,74.68,-1.16,-0.09,16439.986009726406,0.0
902,1900-01-01 21:48:43.400,21.797083,39.075024,0.0,448,136,16436,-2,-2,-1,74.68,-1.15,-0.09,16439.986009726406,0.0
903,1900-01-01 21:48:43.500,21.797083,39.075024,0.0,362,0,16124,-2,1,1,74.68,-1.17,-0.09,16127.885540268446,0.0
904,1900-01-01 21:48:43.600,21.797083,39.075024,0.0,170,-190,16040,-2,0,1,74.67,-1.16,-0.1,16128.891344416701,0.0
905,1900-01-01 21:48:43.700,21.797083,39.075024,0.0,352,-222,16038,-2,1,1,74.67,-1.18,-0.08,16127.729784442694,0.0
906,1900-01-01 21:48:43.800,21.797083,39.075024,0.0,294,-184,16452,-2,4,-2,74.68,-1.19,-0.07,16135.65554912474,0.0
907,1900-01-01 21:48:43.900,21.797085,39.075024,0.0,290,12,16624,1,1,0,74.68,-1.18,-0.09,16455.65544121534,0.000222
908,1900-01-01 21:48:44.000,21.797085,39.075024,0.0,246,-184,16132,-2,2,1,74.68,-1.18,-0.1,16454.641412075805,0.0
909,1900-01-01 21:48:44.100,21.797085,39.075024,0.0,332,-22,16468,-1,0,0,74.68,-1.19,-0.08,16410.566961564735,0.0
910,1900-01-01 21:48:44.200,21.797085,39.075024,0.0,404,134,16320,0,-4,0,74.68,-1.2,-0.08,16406.859784858283,0.0
911,1900-01-01 21:48:44.300,21.797085,39.075024,0.0,248,64,16408,-2,2,2,74.68,-1.19,-0.08,16411.483296765105,0.0
912,1900-01-01 21:48:44.400,21.797085,39.075024,0.0,306,14,16404,-1,2,1,74.67,-1.2,-0.09,16412.296000255417,0.0
913,1900-01-01 21:48:44.500,21.797085,39.075024,0.0,372,88,16724,-1,3,0,74.67,-1.2,-0.09,16411.998781379432,0.0
914,1900-01-01 21:48:44.600,21.797085,39.075024,0.0,370,-6,16842,0,4,0,74.66,-1.19,-0.08,16407.994271086274,0.0
915,1900-01-01 21:48:44.700,21.797085,39.075024,0.0,362,-12,16404,-1,-1,-1,74.66,-1.2,-0.09,16407.994880545277,0.0
916,1900-01-01 21:48:44.800,21.797085,39.075024,0.0,306,-4,16102,-1,2,1,74.65,-1.2,-0.1,16407.780593364845,0.0
917,1900-01-01 21:48:44.900,21.797085,39.075024,0.0,262,-26,16076,-1,1,0,74.65,-1.19,-0.08,16407.669182428075,0.0
918,1900-01-01 21:48:45.000,21.797085,39.075027,0.0,352,-220,16422,-3,2,1,74.65,-1.2,-0.07,16249.704858858206,0.00031
919,1900-01-01 21:48:45.100,21.797085,39.075027,0.0,346,-148,16552,0,0,0,74.64,-1.19,-0.06,16413.795417270194,0.0
920,1900-01-01 21:48:45.200,21.797085,39.075027,0.0,446,68,16246,0,-4,0,74.64,-1.2,-0.06,16413.915681518534,0.0
921,1900-01-01 21:48:45.300,21.797085,39.075027,0.0,418,176,16410,0,-2,0,74.64,-1.2,-0.06,16261.82351398514,0.0
922,1900-01-01 21:48:45.400,21.797085,39.075027,0.0,338,144,16246,-1,-1,1,74.63,-1.2,-0.05,16261.690687010376,0.0
923,1900-01-01 21:48:45.500,21.797085,39.075027,0.0,290,-60,16258,-3,0,1,74.63,-1.2,-0.04,16413.534049679856,0.0
924,1900-01-01 21:48:45.600,21.797085,39.075027,0.0,332,76,16920,1,2,0,74.63,-1.2,-0.03,16291.46623235613,0.0
925,1900-01-01 21:48:45.700,21.797085,39.075027,0.0,324,52,16594,0,1,0,74.63,-1.2,-0.03,16291.372931708365,0.0
926,1900-01-01 21:48:45.800,21.797085,39.075027,0.0,406,48,16288,0,-2,0,74.63,-1.2,-0.03,16291.372931708365,0.0
927,1900-01-01 21:48:45.900,21.797085,39.075027,0.0,328,-6,16166,0,1,0,74.62,-1.19,-0.03,16291.303324166547,0.0
928,1900-01-01 21:48:46.000,21.797085,39.075027,0.0,272,-102,15988,-3,-1,2,74.62,-1.19,-0.02,16291.84753181787,0.0
929,1900-01-01 21:48:46.100,21.797085,39.075027,0.0,354,-144,16650,-1,0,0,74.62,-1.19,-0.01,16341.37399363958,0.0
930,1900-01-01 21:48:46.200,21.797085,39.075027,0.0,374,90,16338,0,-3,0,74.62,-1.19,-0.02,16341.385131010162,0.0
931,1900-01-01 21:48:46.300,21.797085,39.075027,0.0,332,98,16432,0,1,0,74.61,-1.19,-0.02,16435.354696507162,0.0
932,1900-01-01 21:48:46.400,21.797085,39.075027,0.0,260,-20,16178,-2,0,1,74.61,-1.19,-0.01,16435.60001946993,0.0
933,1900-01-01 21:48:46.500,21.797085,39.075027,0.0,326,6,16524,-1,1,1,74.61,-1.19,-0.01,16471.517962835118,0.0
934,1900-01-01 21:48:46.600,21.797085,39.075027,0.0,364,164,16600,0,-3,-1,74.6,-1.19,-0.01,16470.73343843558,0.0
935,1900-01-01 21:48:46.700,21.797085,39.075027,0.0,300,150,16468,0,0,0,74.6,-1.19,-0.01,16527.216583563004,0.0
936,1900-01-01 21:48:46.800,21.797085,39.075027,0.0,264,-46,16146,-3,0,1,74.6,-1.19,-0.0,16472.030111677188,0.0
937,1900-01-01 21:48:46.900,21.797085,39.075027,0.0,396,-72,16606,-2,4,0,74.59,-1.19,0.0,16472.39144750998,0.0
938,1900-01-01 21:48:47.000,21.797085,39.075027,0.0,382,16,16426,0,-2,0,74.58,-1.19,0.01,16430.459275382414,0.0
939,1900-01-01 21:48:47.100,21.797085,39.075027,0.0,380,80,16500,1,-1,0,74.58,-1.18,0.01,16430.55263830161,0.0
940,1900-01-01 21:48:47.200,21.797087,39.075027,0.0,226,-146,15876,-1,1,0,74.58,-1.19,0.0,16430.48362039292,0.000222
941,1900-01-01 21:48:47.300,21.797087,39.075027,0.0,328,-176,16312,-3,2,1,74.58,-1.19,0.01,16500.14812054728,0.0
942,1900-01-01 21:48:47.400,21.797087,39.075027,0.0,398,-54,16558,0,1,0,74.58,-1.18,0.02,16315.386725419658,0.0
943,1900-01-01 21:48:47.500,21.797087,39.075027,0.0,366,98,16496,-1,-2,-1,74.58,-1.18,0.01,16315.386725419658,0.0
944,1900-01-01 21:48:47.600,21.797087,39.075027,0.0,282,36,16256,0,-1,0,74.57,-1.18,-0.0,16499.62569272406,0.0
945,1900-01-01 21:48:47.700,21.797087,39.075027,0.0,270,-58,16178,-2,-1,1,74.57,-1.18,0.01,16385.67044707051,0.0
946,1900-01-01 21:48:47.800,21.797087,39.075027,0.0,344,44,16648,-1,1,-1,74.57,-1.18,0.01,16381.671343303162,0.0
947,1900-01-01 21:48:47.900,21.797087,39.075027,0.0,410,168,16382,-1,-3,0,74.56,-1.18,0.01,16381.671343303162,0.0
948,1900-01-01 21:48:48.000,21.797087,39.075027,0.0,364,194,16378,-1,-1,1,74.56,-1.18,0.01,16386.102526226303,0.0
949,1900-01-01 21:48:48.100,21.797087,39.075027,0.0,248,-22,16106,-2,-1,1,74.56,-1.18,0.02,16382.0592112225,0.0
950,1900-01-01 21:48:48.200,21.797087,39.075027,0.0,372,-100,16596,-2,3,1,74.56,-1.17,0.01,16361.844761517572,0.0
951,1900-01-01 21:48:48.300,21.797087,39.075027,0.0,354,-244,15604,-6,-5,0,74.55,-1.17,0.02,16109.528857170219,0.0
952,1900-01-01 21:48:48.400,21.797087,39.075027,0.0,322,50,16358,0,-3,0,74.55,-1.18,0.02,16168.52027861548,0.0
953,1900-01-01 21:48:48.500,21.797087,39.075027,0.0,260,-186,16028,-1,1,1,74.55,-1.18,0.02,16168.52027861548,0.0
954,1900-01-01 21:48:48.600,21.797087,39.075027,0.0,334,-210,16164,-2,2,1,74.55,-1.18,0.02,16361.4154644395,0.0
955,1900-01-01 21:48:48.700,21.797087,39.075027,0.0,364,-14,16528,-3,2,1,74.54,-1.18,0.02,16379.4117110475,0.0
956,1900-01-01 21:48:48.800,21.797087,39.075027,0.0,418,90,16498,1,-3,-1,74.54,-1.17,0.01,16380.046031681351,0.0
957,1900-01-01 21:48:48.900,21.797087,39.075027,0.0,290,142,16376,-1,0,0,74.54,-1.17,0.02,16502.079141732414,0.0
958,1900-01-01 21:48:49.000,21.797087,39.075027,0.0,372,-6,16342,-1,2,1,74.54,-1.18,0.02,16502.21645719144,0.0
959,1900-01-01 21:48:49.100,21.797087,39.075027,0.0,352,46,16628,1,4,1,74.54,-1.19,0.02,16380.167764708638,0.0
960,1900-01-01 21:48:49.200,21.797087,39.075027,0.0,362,210,16558,-3,0,0,74.53,-1.18,0.03,16346.073656997878,0.0
961,1900-01-01 21:48:49.300,21.797087,39.075027,0.0,366,74,16308,-1,-4,-1,74.53,-1.19,0.02,16311.86329025596,0.0
962,1900-01-01 21:48:49.400,21.797087,39.075027,0.0,322,-20,16004,-2,0,2,74.53,-1.19,0.01,16311.94127012478,0.0
963,1900-01-01 21:48:49.500,21.797087,39.075027,0.0,246,-148,15880,-1,3,1,74.51,-1.19,0.02,16312.070745310051,0.0
964,1900-01-01 21:48:49.600,21.797087,39.075027,0.0,358,-220,16366,-2,3,0,74.51,-1.19,0.03,16370.056322444343,0.0
965,1900-01-01 21:48:49.700,21.797087,39.075027,0.0,430,-68,16484,-2,-3,0,74.51,-1.19,0.02,16448.037086534063,0.0
966,1900-01-01 21:48:49.800,21.797087,39.075027,0.0,402,52,16444,0,-4,1,74.51,-1.19,0.02,16447.978720803356,0.0
967,1900-01-01 21:48:49.900,21.797087,39.075027,0.0,324,92,16506,1,-2,0,74.5,-1.18,0.02,16447.273816654237,0.0
968,1900-01-01 21:48:50.000,21.797087,39.075027,0.0,254,126,16170,-3,1,2,74.5,-1.18,0.02,16447.273816654237,0.0
969,1900-01-01 21:48:50.100,21.797087,39.075027,0.0,280,-64,16422,-2,1,0,74.5,-1.19,0.02,16509.197073146835,0.0
970,1900-01-01 21:48:50.200,21.797087,39.075027,0.0,338,24,16634,-2,4,1,74.49,-1.18,0.02,16425.495548080125,0.0
971,1900-01-01 21:48:50.300,21.797087,39.075027,0.0,384,-34,16576,-2,3,0,74.49,-1.19,0.02,16425.51320355014,0.0
972,1900-01-01 21:48:50.400,21.797087,39.075027,0.0,348,180,16400,0,-2,0,74.49,-1.18,0.03,16579.687451818867,0.0
973,1900-01-01 21:48:50.500,21.797087,39.075027,0.0,266,-84,16024,-3,1,1,74.49,-1.19,0.02,16404.11875109419,0.0
974,1900-01-01 21:48:50.600,21.797087,39.075027,0.0,402,-56,16584,-1,3,0,74.49,-1.18,0.03,16397.788753365498,0.0
975,1900-01-01 21:48:50.700,21.797089,39.075027,0.0,366,66,16394,0,-2,0,74.48,-1.18,0.02,16398.180630789502,0.000222
976,1900-01-01 21:48:50.800,21.797089,39.075027,0.0,308,-126,16262,-3,1,1,74.48,-1.18,0.03,16398.22539179164,0.0
977,1900-01-01 21:48:50.900,21.797089,39.075027,0.0,402,18,16524,-1,-1,0,74.48,-1.17,0.03,16384.30383019065,0.0
978,1900-01-01 21:48:51.000,21.797089,39.075027,0.0,368,-84,15868,-3,-4,0,74.48,-1.18,0.02,16383.827147525697,0.0
979,1900-01-01 21:48:51.100,21.797089,39.075027,0.0,318,-176,16380,-1,1,1,74.47,-1.18,0.02,16383.621699734158,0.0
980,1900-01-01 21:48:51.200,21.797089,39.075027,0.0,344,134,16490,-1,-2,0,74.47,-1.17,0.02,16363.831825095245,0.0
981,1900-01-01 21:48:51.300,21.797089,39.075027,0.0,272,38,16100,-3,0,1,74.47,-1.17,0.02,16383.16953461692,0.0
982,1900-01-01 21:48:51.400,21.797089,39.075031,0.0,370,-146,16360,-1,0,1,74.47,-1.18,0.01,16363.70532611731,0.000413
983,1900-01-01 21:48:51.500,21.797089,39.075031,0.0,320,54,16568,0,0,1,74.46,-1.18,0.02,16313.183135121117,0.0
984,1900-01-01 21:48:51.600,21.797089,39.075031,0.0,448,102,16310,-2,-2,-1,74.46,-1.18,0.02,16313.445374904713,0.0
985,1900-01-01 21:48:51.700,21.797089,39.075031,0.0,314,-100,16024,-2,0,1,74.46,-1.18,0.02,16313.2723878442,0.0
986,1900-01-01 21:48:51.800,21.797089,39.075031,0.0,294,-202,16156,-3,2,1,74.45,-1.18,0.02,16314.018266509327,0.0
987,1900-01-01 21:48:51.900,21.797089,39.075031,0.0,356,-66,16518,-1,-1,1,74.45,-1.18,0.02,16159.36050714879,0.0
988,1900-01-01 21:48:52.000,21.797089,39.075031,0.0,404,78,16510,3,-10,2,74.45,-1.18,0.02,16394.53384515705,0.0
989,1900-01-01 21:48:52.100,21.797089,39.075031,0.0,226,-164,15804,-4,3,0,74.43,-1.18,0.02,16515.074083999745,0.0
990,1900-01-01 21:48:52.200,21.797089,39.075031,0.0,498,-148,16390,-4,3,2,74.43,-1.18,0.02,16395.088166887057,0.0
991,1900-01-01 21:48:52.300,21.797089,39.075031,0.0,422,60,16552,1,-2,1,74.43,-1.18,0.01,0.0,0.0
992,1900-01-01 21:48:52.400,21.797089,39.075031,0.0,342,150,16388,-1,0,-1,74.43,-1.18,0.01,0.0,0.0
